File: data/20151125_CuHcF_1B.txt
Cycle ID	Cap_Chg(mAh)	Cap_DChg(mAh)	RCap_Chg(mAh/g)	RCap_DChg(mAh/g)	Efficiency(%)	Engy_Chg(mWh)	Engy_DChg(mWh)	Mid-value Voltage(mV)	CC_Chg_Cap(mAh)	CC_Chg_Rat(%)	Platform_Cap(mAh)	Platform_RCap(mAh/g)	Platform_Efficiency(%)	Platform_Time	Capacitance_Chg(F)	Capacitance_DChg(F)	rd(mO)	REngy_Chg(mWh/g)	REngy_DChg(mWh/g)	Energy Efficiency(%)
	Step ID	Step Type	Step Time(H:M:S:ms)	Cap(mAh)	CmpCap(mAh/g)	Energy(mWh)	CmpEng(mWh/g)	Capacitance_Chg(F)	Start Vol(mV)	End Vol(mV)	Start Temperature(?)	End Temperature(?)
		Record ID	Time(H:M:S:ms)	Vol(mV)	Cur(mA)	Temperature(?)	Cap(mAh)	CmpCap(mAh/g)	Energy(mWh)	CmpEng(mWh/g)	Realtime
1	0.0004	0.0004	0.3750	0.4194	111.85	0.0001	0.0001	127.4	0.0000	0.00	0.0004	0.4194	100.00	0:02:31	0.0000	0.0000	0.0000	0.1248	0.0557	44.63%
		71	0:01:20:000	118.4	-0.0100	0.0	0.0002	0.2222	0.0000	0.0	2015-11-25 11:48:41
		142	0:01:50:000	55.8	-0.0100	0.0	0.0003	0.3056	0.0001	0.1	2015-11-25 11:54:21
		211	0:00:00:000	40.9	0.0100	0.0	0.0000	0.0000	0.0000	0.0	2015-11-25 11:59:44
		282	0:01:00:000	274.9	0.0100	0.0	0.0002	0.1667	0.0000	0.0	2015-11-25 12:05:24
		353	0:02:05:000	388.1	0.0100	0.0	0.0003	0.3472	0.0001	0.1	2015-11-25 12:11:04
		423	0:00:45:000	173.9	-0.0100	0.0	0.0001	0.1250	0.0000	0.0	2015-11-25 12:16:27
		494	0:02:00:000	22.0	-0.0100	0.0	0.0003	0.3333	0.0000	0.0	2015-11-25 12:22:07
		563	0:00:55:000	273.4	0.0100	0.0	0.0002	0.1528	0.0000	0.0	2015-11-25 12:27:32
		633	0:00:00:000	357.1	-0.0100	0.0	0.0000	0.0000	0.0000	0.0	2015-11-25 12:32:58
		704	0:01:30:000	70.3	-0.0100	0.0	0.0003	0.2500	0.0000	0.0	2015-11-25 12:38:36
		773	0:00:35:000	224.7	0.0100	0.0	0.0001	0.0972	0.0000	0.0	2015-11-25 12:43:55
		843	0:00:00:000	358.0	-0.0100	0.0	0.0000	0.0000	0.0000	0.0	2015-11-25 12:49:24
		914	0:01:40:000	45.2	-0.0100	0.0	0.0003	0.2778	0.0000	0.0	2015-11-25 12:55:02
		983	0:01:00:000	298.8	0.0100	0.0	0.0002	0.1667	0.0000	0.0	2015-11-25 13:00:21
		1053	0:00:35:000	188.4	-0.0100	0.0	0.0001	0.0972	0.0000	0.0	2015-11-25 13:05:50
		1122	0:00:10:000	109.1	0.0100	0.0	0.0000	0.0278	0.0000	0.0	2015-11-25 13:11:11
	45	CC_DChg	0:01:54:000	0.0003	0.3167	0.0000	0.0434	0.0	325.8	-2.4	0.0	0.0
		1263	0:01:50:000	8.0	-0.0100	0.0	0.0003	0.3056	0.0000	0.0	2015-11-25 13:22:13
		1332	0:01:35:000	375.4	0.0100	0.0	0.0003	0.2639	0.0001	0.1	2015-11-25 13:27:31
		1402	0:01:35:000	40.9	-0.0100	0.0	0.0003	0.2639	0.0000	0.0	2015-11-25 13:33:02
		1471	0:01:25:000	362.4	0.0100	0.0	0.0002	0.2361	0.0001	0.1	2015-11-25 13:38:20
		1541	0:01:30:000	44.3	-0.0100	0.0	0.0003	0.2500	0.0000	0.0	2015-11-25 13:43:47
		1610	0:01:30:000	373.2	0.0100	0.0	0.0003	0.2500	0.0001	0.1	2015-11-25 13:49:07
		1680	0:01:35:000	28.5	-0.0100	0.0	0.0003	0.2639	0.0000	0.0	2015-11-25 13:54:30
		1749	0:01:40:000	391.8	0.0100	0.0	0.0003	0.2778	0.0001	0.1	2015-11-25 13:59:51
		1819	0:01:46:000	-1.8	-0.0100	0.0	0.0003	0.2944	0.0000	0.0	2015-11-25 14:05:12
		1887	0:00:05:000	325.2	-0.0100	0.0	0.0000	0.0139	0.0000	0.0	2015-11-25 14:10:28
		1956	0:00:20:000	172.6	0.0100	0.0	0.0001	0.0556	0.0000	0.0	2015-11-25 14:15:55
		2026	0:00:40:000	165.2	-0.0100	0.0	0.0001	0.1111	0.0000	0.0	2015-11-25 14:21:23
		2095	0:00:55:000	298.5	0.0100	0.0	0.0002	0.1528	0.0000	0.0	2015-11-25 14:26:46
		2165	0:01:15:000	66.3	-0.0100	0.0	0.0002	0.2083	0.0000	0.0	2015-11-25 14:32:11
		2234	0:01:30:000	383.4	0.0100	0.0	0.0003	0.2500	0.0001	0.1	2015-11-25 14:37:31
		2302	0:00:00:000	61.0	0.0100	0.0	0.0000	0.0000	0.0000	0.0	2015-11-25 14:42:46
		2372	0:00:30:000	197.1	-0.0100	0.0	0.0001	0.0833	0.0000	0.0	2015-11-25 14:48:08
		2441	0:00:50:000	285.8	0.0100	0.0	0.0001	0.1389	0.0000	0.0	2015-11-25 14:53:28
		2511	0:01:25:000	38.4	-0.0100	0.0	0.0002	0.2361	0.0000	0.0	2015-11-25 14:58:57
	107	CC_DChg	0:01:37:000	0.0003	0.2694	0.0000	0.0372	0.0	324.2	-1.2	0.0	0.0
		2648	0:00:25:000	197.4	0.0100	0.0	0.0001	0.0694	0.0000	0.0	2015-11-25 15:09:26
		2718	0:01:00:000	99.2	-0.0100	0.0	0.0002	0.1667	0.0000	0.0	2015-11-25 15:14:56
		2787	0:01:30:000	381.6	0.0100	0.0	0.0003	0.2500	0.0001	0.1	2015-11-25 15:20:20
		2855	0:00:10:000	107.5	0.0100	0.0	0.0000	0.0278	0.0000	0.0	2015-11-25 15:25:36
		2925	0:00:40:000	161.8	-0.0100	0.0	0.0001	0.1111	0.0000	0.0	2015-11-25 15:31:02
		2994	0:01:10:000	337.9	0.0100	0.0	0.0002	0.1944	0.0000	0.0	2015-11-25 15:36:28
		3064	0:01:40:000	1.2	-0.0100	0.0	0.0003	0.2778	0.0000	0.0	2015-11-25 15:41:53
		3132	0:00:15:000	255.1	-0.0100	0.0	0.0000	0.0417	0.0000	0.0	2015-11-25 15:46:58
		3201	0:00:45:000	270.6	0.0100	0.0	0.0001	0.1250	0.0000	0.0	2015-11-25 15:52:18
		3271	0:01:20:000	42.4	-0.0100	0.0	0.0002	0.2223	0.0000	0.0	2015-11-25 15:57:41
		3339	0:00:00:000	339.4	-0.0100	0.0	0.0000	0.0000	0.0000	0.0	2015-11-25 16:02:53
		3408	0:00:30:000	217.0	0.0100	0.0	0.0001	0.0833	0.0000	0.0	2015-11-25 16:08:07
		3478	0:01:05:000	84.6	-0.0100	0.0	0.0002	0.1806	0.0000	0.0	2015-11-25 16:13:29
		3547	0:01:35:000	399.9	0.0100	0.0	0.0003	0.2642	0.0001	0.1	2015-11-25 16:18:49
		3615	0:00:20:000	169.2	0.0100	0.0	0.0001	0.0556	0.0000	0.0	2015-11-25 16:23:58
		3685	0:01:05:000	82.4	-0.0100	0.0	0.0002	0.1806	0.0000	0.0	2015-11-25 16:29:28
		3754	0:01:34:000	400.5	0.0100	0.0	0.0003	0.2616	0.0001	0.1	2015-11-25 16:34:45
		3822	0:00:25:000	193.4	0.0100	0.0	0.0001	0.0696	0.0000	0.0	2015-11-25 16:39:57
		3892	0:01:10:000	66.9	-0.0100	0.0	0.0002	0.1947	0.0000	0.0	2015-11-25 16:45:26
		3960	0:00:00:000	360.5	-0.0100	0.0	0.0000	0.0000	0.0000	0.0	2015-11-25 16:50:36
		4029	0:00:35:000	237.4	0.0100	0.0	0.0001	0.0972	0.0000	0.0	2015-11-25 16:55:56
		4099	0:01:20:000	37.5	-0.0100	0.0	0.0002	0.2223	0.0000	0.0	2015-11-25 17:01:21
		4167	0:00:20:000	235.9	-0.0100	0.0	0.0001	0.0556	0.0000	0.0	2015-11-25 17:06:33
		4236	0:01:05:000	333.8	0.0100	0.0	0.0002	0.1806	0.0000	0.0	2015-11-25 17:11:59
		4304	0:00:05:000	72.2	0.0100	0.0	0.0000	0.0139	0.0000	0.0	2015-11-25 17:17:11
		4374	0:00:55:000	105.4	-0.0100	0.0	0.0002	0.1528	0.0000	0.0	2015-11-25 17:22:40
	197	CC_DChg	0:01:32:000	0.0003	0.2556	0.0000	0.0354	0.0	359.0	-1.5	0.0	0.0
		4511	0:00:40:000	254.2	0.0100	0.0	0.0001	0.1112	0.0000	0.0	2015-11-25 17:33:17
		4581	0:01:30:000	9.9	-0.0100	0.0	0.0003	0.2500	0.0000	0.0	2015-11-25 17:38:46
		4649	0:00:30:000	192.5	-0.0100	0.0	0.0001	0.0833	0.0000	0.0	2015-11-25 17:44:00
		4718	0:01:15:000	355.2	0.0100	0.0	0.0002	0.2084	0.0000	0.0	2015-11-25 17:49:24
		4786	0:00:10:000	115.3	0.0100	0.0	0.0000	0.0278	0.0000	0.0	2015-11-25 17:54:34
		4856	0:01:00:000	91.7	-0.0101	0.0	0.0002	0.1667	0.0000	0.0	2015-11-25 18:00:05
		4924	0:00:00:000	363.3	-0.0100	0.0	0.0000	0.0000	0.0000	0.0	2015-11-25 18:05:21
		4993	0:00:40:000	251.7	0.0100	0.0	0.0001	0.1111	0.0000	0.0	2015-11-25 18:10:42
		5063	0:01:30:000	12.0	-0.0100	0.0	0.0003	0.2501	0.0000	0.0	2015-11-25 18:16:13
		5131	0:00:30:000	192.5	-0.0100	0.0	0.0001	0.0833	0.0000	0.0	2015-11-25 18:21:27
		5200	0:01:10:000	342.8	0.0100	0.0	0.0002	0.1946	0.0000	0.0	2015-11-25 18:26:50
		5268	0:00:05:000	72.2	0.0100	0.0	0.0000	0.0139	0.0000	0.0	2015-11-25 18:32:02
		5338	0:00:55:000	107.2	-0.0100	0.0	0.0002	0.1528	0.0000	0.0	2015-11-25 18:37:33
	245	CC_DChg	0:01:34:000	0.0003	0.2612	0.0000	0.0361	0.0	362.7	-2.7	0.0	0.0
		5475	0:00:35:000	235.3	0.0100	0.0	0.0001	0.0972	0.0000	0.0	2015-11-25 18:48:12
		5545	0:01:20:000	35.3	-0.0100	0.0	0.0002	0.2223	0.0000	0.0	2015-11-25 18:53:40
		5613	0:00:20:000	235.9	-0.0100	0.0	0.0001	0.0556	0.0000	0.0	2015-11-25 18:58:55
		5682	0:01:05:000	330.1	0.0100	0.0	0.0002	0.1806	0.0000	0.0	2015-11-25 19:04:22
		5750	0:00:00:000	38.4	0.0100	0.0	0.0000	0.0000	0.0000	0.0	2015-11-25 19:09:34
		5820	0:00:40:000	157.1	-0.0100	0.0	0.0001	0.1111	0.0000	0.0	2015-11-25 19:14:57
		5889	0:01:15:000	355.9	0.0100	0.0	0.0002	0.2083	0.0000	0.0	2015-11-25 19:20:16
		5957	0:00:15:000	139.1	0.0100	0.0	0.0000	0.0417	0.0000	0.0	2015-11-25 19:25:30
		6027	0:01:05:000	78.7	-0.0100	0.0	0.0002	0.1806	0.0000	0.0	2015-11-25 19:30:59
		6095	0:00:05:000	325.5	-0.0100	0.0	0.0000	0.0139	0.0000	0.0	2015-11-25 19:36:14
		6164	0:00:50:000	282.7	0.0100	0.0	0.0001	0.1389	0.0000	0.0	2015-11-25 19:41:40
143	0.0003	0.0003	0.2639	0.2584	97.91	0.0001	0.0000	137.6	0.0000	0.00	0.0003	0.2584	100.00	0:01:33	0.0000	0.0000	0.0000	0.0679	0.0361	53.19%
		6302	0:00:30:000	191.2	-0.0100	0.0	0.0001	0.0833	0.0000	0.0	2015-11-25 19:52:16
		6371	0:01:10:000	337.9	0.0100	0.0	0.0002	0.1944	0.0000	0.0	2015-11-25 19:57:37
		6439	0:00:00:000	38.4	0.0100	0.0	0.0000	0.0000	0.0000	0.0	2015-11-25 20:02:49
		6509	0:00:35:000	172.0	-0.0100	0.0	0.0001	0.0972	0.0000	0.0	2015-11-25 20:08:09
		6578	0:01:10:000	339.4	0.0100	0.0	0.0002	0.1944	0.0000	0.0	2015-11-25 20:13:29
153	0.0003	0.0003	0.2611	0.2639	101.06	0.0001	0.0000	143.2	0.0000	0.00	0.0003	0.2639	100.00	0:01:35	0.0000	0.0000	0.0000	0.0667	0.0373	55.95%
		6716	0:00:35:000	171.7	-0.0100	0.0	0.0001	0.0972	0.0000	0.0	2015-11-25 20:23:58
		6785	0:01:15:000	354.3	0.0100	0.0	0.0002	0.2084	0.0000	0.0	2015-11-25 20:29:21
		6853	0:00:05:000	71.9	0.0100	0.0	0.0000	0.0139	0.0000	0.0	2015-11-25 20:34:30
		6923	0:00:50:000	122.1	-0.0100	0.0	0.0001	0.1389	0.0000	0.0	2015-11-25 20:39:56
		6992	0:01:33:000	401.7	0.0100	0.0	0.0003	0.2583	0.0001	0.1	2015-11-25 20:45:21
		7060	0:00:30:000	209.2	0.0100	0.0	0.0001	0.0833	0.0000	0.0	2015-11-25 20:50:32
		7130	0:01:10:000	66.3	-0.0100	0.0	0.0002	0.1944	0.0000	0.0	2015-11-25 20:55:58
		7199	0:01:37:000	401.1	0.0100	0.0	0.0003	0.2695	0.0001	0.1	2015-11-25 21:01:13
		7267	0:00:20:000	166.4	0.0100	0.0	0.0001	0.0556	0.0000	0.0	2015-11-25 21:06:22
		7337	0:01:05:000	81.8	-0.0100	0.0	0.0002	0.1806	0.0000	0.0	2015-11-25 21:11:53
	343	CC_DChg	0:01:33:000	0.0003	0.2583	0.0000	0.0364	0.0	360.5	-0.3	0.0	0.0
		7474	0:00:35:000	233.1	0.0100	0.0	0.0001	0.0972	0.0000	0.0	2015-11-25 21:22:25
		7544	0:01:10:000	69.4	-0.0100	0.0	0.0002	0.1945	0.0000	0.0	2015-11-25 21:27:48
		7613	0:01:36:000	402.7	0.0100	0.0	0.0003	0.2667	0.0001	0.1	2015-11-25 21:33:01
		7681	0:00:25:000	192.8	0.0100	0.0	0.0001	0.0694	0.0000	0.0	2015-11-25 21:38:13
		7751	0:01:05:000	79.0	-0.0100	0.0	0.0002	0.1806	0.0000	0.0	2015-11-25 21:43:37
		7820	0:01:35:000	402.0	0.0100	0.0	0.0003	0.2639	0.0001	0.1	2015-11-25 21:48:52
		7888	0:00:20:000	163.6	0.0100	0.0	0.0001	0.0556	0.0000	0.0	2015-11-25 21:53:57
		7958	0:00:55:000	110.6	-0.0100	0.0	0.0002	0.1528	0.0000	0.0	2015-11-25 21:59:19
		8027	0:01:25:000	376.9	0.0100	0.0	0.0002	0.2361	0.0001	0.1	2015-11-25 22:04:34
		8095	0:00:15:000	144.4	0.0100	0.0	0.0000	0.0417	0.0000	0.0	2015-11-25 22:09:45
		8165	0:01:00:000	97.0	-0.0100	0.0	0.0002	0.1667	0.0000	0.0	2015-11-25 22:15:13
	383	CC_DChg	0:01:34:000	0.0003	0.2611	0.0000	0.0367	0.0	361.7	-2.1	0.0	0.0
		8302	0:00:40:000	247.3	0.0100	0.0	0.0001	0.1111	0.0000	0.0	2015-11-25 22:25:46
		8372	0:01:20:000	34.4	-0.0100	0.0	0.0002	0.2222	0.0000	0.0	2015-11-25 22:31:11
		8440	0:00:10:000	286.7	-0.0100	0.0	0.0000	0.0278	0.0000	0.0	2015-11-25 22:36:22
		8509	0:00:40:000	245.5	0.0100	0.0	0.0001	0.1111	0.0000	0.0	2015-11-25 22:41:39
		8579	0:01:15:000	54.2	-0.0100	0.0	0.0002	0.2083	0.0000	0.0	2015-11-25 22:47:02
	403	CC_DChg	0:01:38:000	0.0003	0.2722	0.0000	0.0381	0.0	361.4	-0.6	0.0	0.0
		8716	0:00:25:000	187.2	0.0100	0.0	0.0001	0.0694	0.0000	0.0	2015-11-25 22:57:25
		8786	0:01:00:000	95.1	-0.0100	0.0	0.0002	0.1667	0.0000	0.0	2015-11-25 23:02:49
		8855	0:01:35:000	397.1	0.0100	0.0	0.0003	0.2639	0.0001	0.1	2015-11-25 23:08:07
		8923	0:00:15:000	141.0	0.0100	0.0	0.0000	0.0417	0.0000	0.0	2015-11-25 23:13:10
		8993	0:00:50:000	125.5	-0.0100	0.0	0.0001	0.1389	0.0000	0.0	2015-11-25 23:18:32
		9062	0:01:20:000	362.7	0.0100	0.0	0.0002	0.2222	0.0001	0.1	2015-11-25 23:23:49
		9130	0:00:05:000	70.6	0.0100	0.0	0.0000	0.0139	0.0000	0.0	2015-11-25 23:28:53
		9200	0:00:45:000	140.7	-0.0100	0.0	0.0001	0.1250	0.0000	0.0	2015-11-25 23:34:18
		9269	0:01:30:000	386.5	0.0100	0.0	0.0003	0.2500	0.0001	0.1	2015-11-25 23:39:45
		9337	0:00:15:000	145.7	0.0100	0.0	0.0000	0.0417	0.0000	0.0	2015-11-25 23:44:51
		9407	0:01:00:000	96.7	-0.0100	0.0	0.0002	0.1667	0.0000	0.0	2015-11-25 23:50:15
		9476	0:01:33:000	402.7	0.0100	0.0	0.0003	0.2583	0.0001	0.1	2015-11-25 23:55:32
		9544	0:00:30:000	215.4	0.0100	0.0	0.0001	0.0833	0.0000	0.0	2015-11-26 00:00:43
		9614	0:01:20:000	36.8	-0.0100	0.0	0.0002	0.2222	0.0000	0.0	2015-11-26 00:06:11
		9682	0:00:05:000	336.9	-0.0100	0.0	0.0000	0.0139	0.0000	0.0	2015-11-26 00:11:14
		9751	0:00:45:000	261.0	0.0100	0.0	0.0001	0.1250	0.0000	0.0	2015-11-26 00:16:37
		9821	0:01:25:000	26.9	-0.0100	0.0	0.0002	0.2361	0.0000	0.0	2015-11-26 00:22:07
		9889	0:00:05:000	329.8	-0.0100	0.0	0.0000	0.0139	0.0000	0.0	2015-11-26 00:27:16
		9958	0:00:35:000	224.4	0.0100	0.0	0.0001	0.0972	0.0000	0.0	2015-11-26 00:32:37
		10028	0:01:10:000	67.5	-0.0100	0.0	0.0002	0.1944	0.0000	0.0	2015-11-26 00:38:07
		10097	0:01:39:000	401.7	0.0100	0.0	0.0003	0.2750	0.0001	0.1	2015-11-26 00:43:28
		10165	0:00:25:000	194.0	0.0100	0.0	0.0001	0.0694	0.0000	0.0	2015-11-26 00:48:42
		10235	0:01:05:000	77.1	-0.0100	0.0	0.0002	0.1806	0.0000	0.0	2015-11-26 00:54:11
		10304	0:01:35:000	391.8	0.0100	0.0	0.0003	0.2639	0.0001	0.1	2015-11-26 00:59:29
		10372	0:00:15:000	134.2	0.0100	0.0	0.0000	0.0417	0.0000	0.0	2015-11-26 01:04:41
		10442	0:00:50:000	125.8	-0.0100	0.0	0.0001	0.1389	0.0000	0.0	2015-11-26 01:10:09
		10511	0:01:20:000	357.4	0.0100	0.0	0.0002	0.2222	0.0001	0.1	2015-11-26 01:15:30
		10579	0:00:00:000	36.5	0.0100	0.0	0.0000	0.0000	0.0000	0.0	2015-11-26 01:20:41
		10649	0:00:35:000	174.8	-0.0100	0.0	0.0001	0.0972	0.0000	0.0	2015-11-26 01:26:06
		10718	0:01:05:000	317.4	0.0100	0.0	0.0002	0.1806	0.0000	0.0	2015-11-26 01:31:27
		10788	0:01:38:000	-0.6	-0.0100	0.0	0.0003	0.2722	0.0000	0.0	2015-11-26 01:36:52
		10856	0:00:20:000	235.9	-0.0100	0.0	0.0001	0.0556	0.0000	0.0	2015-11-26 01:42:06
		10925	0:00:50:000	278.3	0.0100	0.0	0.0001	0.1389	0.0000	0.0	2015-11-26 01:47:28
		10995	0:01:25:000	27.9	-0.0100	0.0	0.0002	0.2361	0.0000	0.0	2015-11-26 01:52:57
		11063	0:00:05:000	328.9	-0.0100	0.0	0.0000	0.0139	0.0000	0.0	2015-11-26 01:58:05
		11132	0:00:35:000	228.1	0.0100	0.0	0.0001	0.0972	0.0000	0.0	2015-11-26 02:03:29
		11202	0:01:10:000	72.5	-0.0100	0.0	0.0002	0.1944	0.0000	0.0	2015-11-26 02:08:57
		11271	0:01:37:000	401.4	0.0100	0.0	0.0003	0.2694	0.0001	0.1	2015-11-26 02:14:19
		11339	0:00:20:000	163.3	0.0100	0.0	0.0001	0.0556	0.0000	0.0	2015-11-26 02:19:30
		11409	0:00:55:000	109.7	-0.0100	0.0	0.0002	0.1528	0.0000	0.0	2015-11-26 02:24:56
		11478	0:01:25:000	372.0	0.0100	0.0	0.0002	0.2361	0.0001	0.1	2015-11-26 02:30:17
		11546	0:00:05:000	56.4	0.0100	0.0	0.0000	0.0139	0.0000	0.0	2015-11-26 02:35:25
		11616	0:00:40:000	157.4	-0.0100	0.0	0.0001	0.1111	0.0000	0.0	2015-11-26 02:40:51
		11685	0:01:10:000	332.9	0.0100	0.0	0.0002	0.1944	0.0000	0.0	2015-11-26 02:46:13
276	0.0003	0.0003	0.2694	0.2722	101.03	0.0001	0.0000	126.7	0.0000	0.00	0.0003	0.2722	100.00	0:01:38	0.0000	0.0000	0.0000	0.0683	0.0376	55.13%
		11823	0:00:25:000	217.3	-0.0100	0.0	0.0001	0.0694	0.0000	0.0	2015-11-26 02:56:49
		11892	0:00:55:000	293.8	0.0100	0.0	0.0002	0.1528	0.0000	0.0	2015-11-26 03:02:11
		11962	0:01:30:000	16.4	-0.0100	0.0	0.0003	0.2500	0.0000	0.0	2015-11-26 03:07:34
		12030	0:00:10:000	287.6	-0.0100	0.0	0.0000	0.0278	0.0000	0.0	2015-11-26 03:12:40
		12099	0:00:40:000	239.9	0.0100	0.0	0.0001	0.1111	0.0000	0.0	2015-11-26 03:17:58
		12169	0:01:15:000	55.4	-0.0100	0.0	0.0002	0.2083	0.0000	0.0	2015-11-26 03:23:23
	575	CC_DChg	0:01:36:000	0.0003	0.2667	0.0000	0.0375	0.0	357.7	-1.8	0.0	0.0
		12306	0:00:25:000	187.2	0.0100	0.0	0.0001	0.0694	0.0000	0.0	2015-11-26 03:33:50
		12376	0:00:55:000	112.5	-0.0100	0.0	0.0002	0.1528	0.0000	0.0	2015-11-26 03:39:14
		12445	0:01:25:000	369.5	0.0100	0.0	0.0002	0.2361	0.0001	0.1	2015-11-26 03:44:36
		12513	0:00:05:000	75.6	0.0100	0.0	0.0000	0.0139	0.0000	0.0	2015-11-26 03:49:46
		12583	0:00:40:000	161.8	-0.0100	0.0	0.0001	0.1111	0.0000	0.0	2015-11-26 03:55:14
		12652	0:01:10:000	329.8	0.0100	0.0	0.0002	0.1944	0.0000	0.0	2015-11-26 04:00:37
299	0.0003	0.0003	0.2722	0.2722	99.99	0.0001	0.0000	127.4	0.0000	0.00	0.0003	0.2722	100.00	0:01:38	0.0000	0.0000	0.0000	0.0687	0.0379	55.12%
		12790	0:00:25:000	213.2	-0.0100	0.0	0.0001	0.0694	0.0000	0.0	2015-11-26 04:11:20
		12859	0:00:55:000	287.3	0.0100	0.0	0.0002	0.1528	0.0000	0.0	2015-11-26 04:16:44
		12929	0:01:30:000	24.1	-0.0100	0.0	0.0003	0.2500	0.0000	0.0	2015-11-26 04:22:11
		12997	0:00:10:000	289.5	-0.0100	0.0	0.0000	0.0278	0.0000	0.0	2015-11-26 04:27:21
		13066	0:00:40:000	241.8	0.0100	0.0	0.0001	0.1111	0.0000	0.0	2015-11-26 04:32:40
		13136	0:01:15:000	59.5	-0.0100	0.0	0.0002	0.2084	0.0000	0.0	2015-11-26 04:38:08
	621	CC_DChg	0:01:38:000	0.0003	0.2722	0.0000	0.0380	0.0	361.4	-2.7	0.0	0.0
		13273	0:00:25:000	181.6	0.0100	0.0	0.0001	0.0694	0.0000	0.0	2015-11-26 04:48:44
		13343	0:01:00:000	97.9	-0.0100	0.0	0.0002	0.1667	0.0000	0.0	2015-11-26 04:54:14
		13412	0:01:30:000	381.3	0.0100	0.0	0.0003	0.2500	0.0001	0.1	2015-11-26 04:59:38
		13480	0:00:10:000	110.3	0.0100	0.0	0.0000	0.0278	0.0000	0.0	2015-11-26 05:04:49
		13550	0:00:45:000	144.4	-0.0100	0.0	0.0001	0.1250	0.0000	0.0	2015-11-26 05:10:13
		13619	0:01:15:000	344.1	0.0100	0.0	0.0002	0.2083	0.0000	0.0	2015-11-26 05:15:35
	644	CC_Chg	0:01:37:000	0.0003	0.2694	0.0001	0.0682	0.0	44.3	401.1	0.0	0.0
		13757	0:00:30:000	198.1	-0.0100	0.0	0.0001	0.0833	0.0000	0.0	2015-11-26 05:26:11
		13826	0:01:00:000	305.0	0.0100	0.0	0.0002	0.1667	0.0000	0.0	2015-11-26 05:31:32
		13896	0:01:35:000	5.2	-0.0100	0.0	0.0003	0.2639	0.0000	0.0	2015-11-26 05:36:59
		13964	0:00:10:000	290.4	-0.0100	0.0	0.0000	0.0278	0.0000	0.0	2015-11-26 05:42:07
		14033	0:00:35:000	217.6	0.0100	0.0	0.0001	0.0972	0.0000	0.0	2015-11-26 05:47:28
		14103	0:01:00:000	101.9	-0.0100	0.0	0.0002	0.1667	0.0000	0.0	2015-11-26 05:52:52
		14172	0:01:25:000	362.4	0.0100	0.0	0.0002	0.2361	0.0001	0.1	2015-11-26 05:58:15
		14242	0:01:40:000	-1.5	-0.0100	0.0	0.0003	0.2778	0.0000	0.0	2015-11-26 06:03:34
		14310	0:00:10:000	290.7	-0.0100	0.0	0.0000	0.0278	0.0000	0.0	2015-11-26 06:08:46
		14379	0:00:30:000	201.2	0.0100	0.0	0.0001	0.0833	0.0000	0.0	2015-11-26 06:14:07
		14449	0:00:55:000	115.6	-0.0100	0.0	0.0002	0.1528	0.0000	0.0	2015-11-26 06:19:33
		14518	0:01:15:000	341.0	0.0100	0.0	0.0002	0.2083	0.0000	0.0	2015-11-26 06:24:52
		14588	0:01:39:000	-0.9	-0.0100	0.0	0.0003	0.2750	0.0000	0.0	2015-11-26 06:30:15
		14656	0:00:10:000	293.2	-0.0100	0.0	0.0000	0.0278	0.0000	0.0	2015-11-26 06:35:24
		14725	0:00:30:000	204.3	0.0100	0.0	0.0001	0.0833	0.0000	0.0	2015-11-26 06:40:43
		14795	0:00:55:000	117.4	-0.0100	0.0	0.0002	0.1528	0.0000	0.0	2015-11-26 06:46:07
		14864	0:01:15:000	337.9	0.0100	0.0	0.0002	0.2083	0.0000	0.0	2015-11-26 06:51:27
		14934	0:01:35:000	10.5	-0.0100	0.0	0.0003	0.2639	0.0000	0.0	2015-11-26 06:56:48
		15002	0:00:10:000	297.9	-0.0100	0.0	0.0000	0.0278	0.0000	0.0	2015-11-26 07:02:01
		15071	0:00:25:000	181.9	0.0100	0.0	0.0001	0.0694	0.0000	0.0	2015-11-26 07:07:16
		15141	0:00:50:000	131.7	-0.0100	0.0	0.0001	0.1389	0.0000	0.0	2015-11-26 07:12:41
		15210	0:01:15:000	339.4	0.0100	0.0	0.0002	0.2083	0.0000	0.0	2015-11-26 07:18:04
		15280	0:01:40:000	-2.7	-0.0100	0.0	0.0003	0.2778	0.0000	0.0	2015-11-26 07:23:29
		15348	0:00:05:000	328.6	-0.0100	0.0	0.0000	0.0139	0.0000	0.0	2015-11-26 07:28:36
		15417	0:00:25:000	177.0	0.0100	0.0	0.0001	0.0694	0.0000	0.0	2015-11-26 07:33:55
		15487	0:00:45:000	144.7	-0.0100	0.0	0.0001	0.1250	0.0000	0.0	2015-11-26 07:39:18
		15556	0:01:05:000	314.3	0.0100	0.0	0.0002	0.1806	0.0000	0.0	2015-11-26 07:44:38
		15626	0:01:25:000	38.1	-0.0100	0.0	0.0002	0.2361	0.0000	0.0	2015-11-26 07:50:00
		15695	0:01:40:000	399.6	0.0100	0.0	0.0003	0.2778	0.0001	0.1	2015-11-26 07:55:15
		15763	0:00:00:000	36.5	0.0100	0.0	0.0000	0.0000	0.0000	0.0	2015-11-26 08:00:19
		15833	0:00:30:000	194.3	-0.0100	0.0	0.0001	0.0833	0.0000	0.0	2015-11-26 08:05:46
		15902	0:00:50:000	268.7	0.0100	0.0	0.0001	0.1389	0.0000	0.0	2015-11-26 08:11:05
		15972	0:01:20:000	49.2	-0.0100	0.0	0.0002	0.2222	0.0000	0.0	2015-11-26 08:16:32
	753	CC_DChg	0:01:39:000	0.0003	0.2750	0.0000	0.0388	0.0	360.8	-1.2	0.0	0.0
		16109	0:00:15:000	130.2	0.0100	0.0	0.0000	0.0417	0.0000	0.0	2015-11-26 08:27:02
		16179	0:00:40:000	165.8	-0.0100	0.0	0.0001	0.1111	0.0000	0.0	2015-11-26 08:32:26
		16248	0:01:00:000	302.5	0.0100	0.0	0.0002	0.1667	0.0000	0.0	2015-11-26 08:37:45
		16318	0:01:30:000	24.1	-0.0100	0.0	0.0003	0.2500	0.0000	0.0	2015-11-26 08:43:12
		16386	0:00:10:000	291.1	-0.0100	0.0	0.0000	0.0278	0.0000	0.0	2015-11-26 08:48:27
		16455	0:00:40:000	238.0	0.0100	0.0	0.0001	0.1111	0.0000	0.0	2015-11-26 08:53:53
		16525	0:01:15:000	59.5	-0.0100	0.0	0.0002	0.2083	0.0000	0.0	2015-11-26 08:59:24
		16594	0:01:40:000	402.7	0.0100	0.0	0.0003	0.2778	0.0001	0.1	2015-11-26 09:04:45
		16662	0:00:20:000	164.0	0.0100	0.0	0.0001	0.0556	0.0000	0.0	2015-11-26 09:10:00
		16732	0:00:55:000	117.1	-0.0100	0.0	0.0002	0.1528	0.0000	0.0	2015-11-26 09:15:33
		16801	0:01:25:000	365.5	0.0100	0.0	0.0002	0.2361	0.0001	0.1	2015-11-26 09:20:57
		16869	0:00:00:000	38.1	0.0100	0.0	0.0000	0.0000	0.0000	0.0	2015-11-26 09:26:08
		16939	0:00:25:000	215.4	-0.0100	0.0	0.0001	0.0694	0.0000	0.0	2015-11-26 09:31:30
		17008	0:00:45:000	250.8	0.0100	0.0	0.0001	0.1250	0.0000	0.0	2015-11-26 09:36:50
		17078	0:01:05:000	88.0	-0.0100	0.0	0.0002	0.1806	0.0000	0.0	2015-11-26 09:42:13
		17147	0:01:30:000	377.2	0.0100	0.0	0.0003	0.2501	0.0001	0.1	2015-11-26 09:47:36
404	0.0003	0.0003	0.2833	0.2778	98.04	0.0001	0.0000	132.9	0.0000	0.00	0.0003	0.2778	100.00	0:01:40	0.0000	0.0000	0.0000	0.0710	0.0389	54.85%
		17285	0:00:10:000	299.4	-0.0100	0.0	0.0000	0.0278	0.0000	0.0	2015-11-26 09:58:00
		17354	0:00:25:000	178.8	0.0100	0.0	0.0001	0.0694	0.0000	0.0	2015-11-26 10:03:17
		17424	0:00:45:000	148.1	-0.0100	0.0	0.0001	0.1250	0.0000	0.0	2015-11-26 10:08:39
		17493	0:01:00:000	299.4	0.0100	0.0	0.0002	0.1667	0.0000	0.0	2015-11-26 10:13:56
		17563	0:01:20:000	50.5	-0.0100	0.0	0.0002	0.2222	0.0000	0.0	2015-11-26 10:19:18
		17632	0:01:35:000	386.9	0.0100	0.0	0.0003	0.2639	0.0001	0.1	2015-11-26 10:24:35
	830	CC_Chg	0:01:41:000	0.0003	0.2806	0.0001	0.0709	0.0	38.1	402.0	0.0	0.0
		17770	0:00:15:000	266.6	-0.0100	0.0	0.0000	0.0417	0.0000	0.0	2015-11-26 10:35:00
		17839	0:00:30:000	199.0	0.0100	0.0	0.0001	0.0833	0.0000	0.0	2015-11-26 10:40:17
		17909	0:00:50:000	134.2	-0.0100	0.0	0.0001	0.1389	0.0000	0.0	2015-11-26 10:45:41
		17978	0:01:05:000	306.9	0.0100	0.0	0.0002	0.1806	0.0000	0.0	2015-11-26 10:50:59
		18048	0:01:25:000	39.3	-0.0100	0.0	0.0002	0.2361	0.0000	0.0	2015-11-26 10:56:21
		18117	0:01:40:000	395.5	0.0100	0.0	0.0003	0.2778	0.0001	0.1	2015-11-26 11:01:39
		18185	0:00:00:000	39.9	0.0100	0.0	0.0000	0.0000	0.0000	0.0	2015-11-26 11:06:43
		18255	0:00:20:000	242.1	-0.0100	0.0	0.0001	0.0556	0.0000	0.0	2015-11-26 11:12:05
		18324	0:00:35:000	217.3	0.0100	0.0	0.0001	0.0972	0.0000	0.0	2015-11-26 11:17:21
		18394	0:00:55:000	117.1	-0.0100	0.0	0.0002	0.1528	0.0000	0.0	2015-11-26 11:22:42
		18463	0:01:10:000	325.2	0.0100	0.0	0.0002	0.1945	0.0000	0.0	2015-11-26 11:27:59
		18533	0:01:30:000	26.9	-0.0100	0.0	0.0003	0.2501	0.0000	0.0	2015-11-26 11:33:21
		18602	0:01:40:000	403.0	0.0100	0.0	0.0003	0.2778	0.0001	0.1	2015-11-26 11:38:32
		18670	0:00:05:000	57.0	0.0100	0.0	0.0000	0.0139	0.0000	0.0	2015-11-26 11:43:38
		18740	0:00:30:000	199.9	-0.0100	0.0	0.0001	0.0833	0.0000	0.0	2015-11-26 11:49:02
		18809	0:00:50:000	265.9	0.0100	0.0	0.0001	0.1389	0.0000	0.0	2015-11-26 11:54:21
		18879	0:01:10:000	79.6	-0.0100	0.0	0.0002	0.1944	0.0000	0.0	2015-11-26 11:59:42
		18948	0:01:30:000	373.5	0.0100	0.0	0.0003	0.2500	0.0001	0.1	2015-11-26 12:05:02
	890	CC_Chg	0:01:40:000	0.0003	0.2778	0.0001	0.0691	0.0	34.4	400.2	0.0	0.0
		19086	0:00:15:000	269.7	-0.0100	0.0	0.0000	0.0417	0.0000	0.0	2015-11-26 12:15:28
		19155	0:00:30:000	203.3	0.0100	0.0	0.0001	0.0833	0.0000	0.0	2015-11-26 12:20:45
		19225	0:01:00:000	106.0	-0.0100	0.0	0.0002	0.1667	0.0000	0.0	2015-11-26 12:26:12
		19294	0:01:20:000	350.6	0.0100	0.0	0.0002	0.2223	0.0000	0.0	2015-11-26 12:31:32
453	0.0003	0.0003	0.2750	0.2751	100.02	0.0001	0.0000	132.3	0.0000	0.00	0.0003	0.2751	100.00	0:01:39	0.0000	0.0000	0.0000	0.0694	0.0395	56.86%
		19432	0:00:20:000	242.4	-0.0100	0.0	0.0001	0.0556	0.0000	0.0	2015-11-26 12:42:08
		19501	0:00:40:000	234.6	0.0100	0.0	0.0001	0.1111	0.0000	0.0	2015-11-26 12:47:28
		19571	0:01:00:000	103.2	-0.0100	0.0	0.0002	0.1667	0.0000	0.0	2015-11-26 12:52:48
		19640	0:01:25:000	364.2	0.0100	0.0	0.0002	0.2361	0.0001	0.1	2015-11-26 12:58:12
461	0.0003	0.0003	0.2722	0.2751	101.04	0.0001	0.0000	132.9	0.0000	0.00	0.0003	0.2751	100.00	0:01:39	0.0000	0.0000	0.0000	0.0686	0.0391	57.02%
		19778	0:00:20:000	241.5	-0.0100	0.0	0.0001	0.0556	0.0000	0.0	2015-11-26 13:08:45
		19847	0:00:45:000	249.5	0.0100	0.0	0.0001	0.1250	0.0000	0.0	2015-11-26 13:14:10
		19917	0:01:05:000	90.5	-0.0100	0.0	0.0002	0.1806	0.0000	0.0	2015-11-26 13:19:33
		19986	0:01:20:000	345.3	0.0100	0.0	0.0002	0.2223	0.0000	0.0	2015-11-26 13:24:49
		20056	0:01:40:000	4.0	-0.0100	0.0	0.0003	0.2778	0.0000	0.0	2015-11-26 13:30:16
		20124	0:00:00:000	365.5	-0.0100	0.0	0.0000	0.0000	0.0000	0.0	2015-11-26 13:35:25
		20193	0:00:15:000	136.4	0.0100	0.0	0.0000	0.0417	0.0000	0.0	2015-11-26 13:40:43
		20263	0:00:35:000	186.3	-0.0100	0.0	0.0001	0.0972	0.0000	0.0	2015-11-26 13:46:08
		20332	0:00:50:000	270.9	0.0100	0.0	0.0001	0.1389	0.0000	0.0	2015-11-26 13:51:31
		20402	0:01:15:000	66.0	-0.0100	0.0	0.0002	0.2083	0.0000	0.0	2015-11-26 13:56:54
		20471	0:01:35:000	383.4	0.0100	0.0	0.0003	0.2639	0.0001	0.1	2015-11-26 14:02:14
	960	CC_Chg	0:01:43:000	0.0003	0.2861	0.0001	0.0717	0.0	34.7	402.0	0.0	0.0
		20609	0:00:15:000	264.4	-0.0101	0.0	0.0000	0.0417	0.0000	0.0	2015-11-26 14:12:46
		20678	0:00:30:000	200.8	0.0100	0.0	0.0001	0.0833	0.0000	0.0	2015-11-26 14:18:06
		20748	0:00:50:000	137.9	-0.0100	0.0	0.0001	0.1389	0.0000	0.0	2015-11-26 14:23:32
		20817	0:01:05:000	305.0	0.0100	0.0	0.0002	0.1806	0.0000	0.0	2015-11-26 14:28:50
		20887	0:01:25:000	41.8	-0.0100	0.0	0.0002	0.2361	0.0000	0.0	2015-11-26 14:34:18
		20956	0:01:40:000	392.4	0.0100	0.0	0.0003	0.2778	0.0001	0.1	2015-11-26 14:39:38
		21024	0:00:00:000	35.3	0.0100	0.0	0.0000	0.0000	0.0000	0.0	2015-11-26 14:44:48
		21094	0:00:20:000	244.6	-0.0100	0.0	0.0001	0.0556	0.0000	0.0	2015-11-26 14:50:15
		21163	0:00:35:000	217.3	0.0100	0.0	0.0001	0.0973	0.0000	0.0	2015-11-26 14:55:37
		21233	0:00:55:000	125.8	-0.0100	0.0	0.0002	0.1528	0.0000	0.0	2015-11-26 15:01:07
		21302	0:01:10:000	316.2	0.0100	0.0	0.0002	0.1944	0.0000	0.0	2015-11-26 15:06:32
		21372	0:01:30:000	32.2	-0.0100	0.0	0.0003	0.2500	0.0000	0.0	2015-11-26 15:12:02
		21441	0:01:45:000	399.9	0.0101	0.0	0.0003	0.2920	0.0001	0.1	2015-11-26 15:17:26
		21509	0:00:00:000	36.8	0.0100	0.0	0.0000	0.0000	0.0000	0.0	2015-11-26 15:22:37
		21579	0:00:20:000	240.5	-0.0100	0.0	0.0001	0.0556	0.0000	0.0	2015-11-26 15:28:07
		21648	0:00:30:000	191.5	0.0100	0.0	0.0001	0.0834	0.0000	0.0	2015-11-26 15:33:28
		21718	0:00:45:000	155.0	-0.0100	0.0	0.0001	0.1250	0.0000	0.0	2015-11-26 15:38:54
		21787	0:01:00:000	288.0	0.0100	0.0	0.0002	0.1667	0.0000	0.0	2015-11-26 15:44:20
		21857	0:01:15:000	70.9	-0.0100	0.0	0.0002	0.2084	0.0000	0.0	2015-11-26 15:49:48
		21926	0:01:30:000	367.9	0.0100	0.0	0.0003	0.2502	0.0001	0.1	2015-11-26 15:55:14
513	0.0003	0.0003	0.2890	0.2917	100.92	0.0001	0.0000	128.9	0.0000	0.00	0.0003	0.2917	100.00	0:01:45	0.0000	0.0000	0.0000	0.0732	0.0411	56.18%
		22064	0:00:05:000	333.2	-0.0100	0.0	0.0000	0.0139	0.0000	0.0	2015-11-26 16:05:58
		22133	0:00:20:000	157.4	0.0100	0.0	0.0001	0.0556	0.0000	0.0	2015-11-26 16:11:24
		22203	0:00:40:000	168.6	-0.0100	0.0	0.0001	0.1111	0.0000	0.0	2015-11-26 16:16:54
		22272	0:00:55:000	278.7	0.0100	0.0	0.0002	0.1528	0.0000	0.0	2015-11-26 16:22:17
		22342	0:01:15:000	75.0	-0.0100	0.0	0.0002	0.2083	0.0000	0.0	2015-11-26 16:27:47
		22411	0:01:30:000	370.7	0.0100	0.0	0.0003	0.2500	0.0001	0.1	2015-11-26 16:33:09
524	0.0003	0.0003	0.2862	0.2835	99.05	0.0001	0.0000	137.0	0.0000	0.00	0.0003	0.2835	100.00	0:01:42	0.0000	0.0000	0.0000	0.0717	0.0405	56.51%
		22549	0:00:10:000	293.5	-0.0100	0.0	0.0000	0.0278	0.0000	0.0	2015-11-26 16:43:51
		22618	0:00:25:000	177.6	0.0100	0.0	0.0001	0.0695	0.0000	0.0	2015-11-26 16:49:17
		22688	0:00:40:000	172.6	-0.0100	0.0	0.0001	0.1111	0.0000	0.0	2015-11-26 16:54:43
		22757	0:00:50:000	260.1	0.0100	0.0	0.0001	0.1389	0.0000	0.0	2015-11-26 17:00:05
		22827	0:01:00:000	112.5	-0.0100	0.0	0.0002	0.1667	0.0000	0.0	2015-11-26 17:05:30
		22896	0:01:10:000	314.9	0.0100	0.0	0.0002	0.1944	0.0000	0.0	2015-11-26 17:10:53
		22966	0:01:20:000	59.2	-0.0100	0.0	0.0002	0.2222	0.0000	0.0	2015-11-26 17:16:18
		23035	0:01:25:000	353.1	0.0100	0.0	0.0002	0.2361	0.0001	0.1	2015-11-26 17:21:38
		23105	0:01:30:000	33.4	-0.0100	0.0	0.0003	0.2501	0.0000	0.0	2015-11-26 17:27:01
		23174	0:01:30:000	361.4	0.0100	0.0	0.0003	0.2501	0.0001	0.1	2015-11-26 17:32:18
		23244	0:01:35:000	25.7	-0.0100	0.0	0.0003	0.2639	0.0000	0.0	2015-11-26 17:37:41
		23313	0:01:35:000	371.0	0.0100	0.0	0.0003	0.2639	0.0001	0.1	2015-11-26 17:43:00
		23383	0:01:40:000	15.8	-0.0100	0.0	0.0003	0.2779	0.0000	0.0	2015-11-26 17:48:27
		23452	0:01:40:000	381.9	0.0100	0.0	0.0003	0.2779	0.0001	0.1	2015-11-26 17:53:47
		23522	0:01:45:000	7.4	-0.0100	0.0	0.0003	0.2918	0.0000	0.0	2015-11-26 17:59:14
		23591	0:01:45:000	397.1	0.0100	0.0	0.0003	0.2919	0.0001	0.1	2015-11-26 18:04:35
		23661	0:01:46:000	-1.5	-0.0100	0.0	0.0003	0.2949	0.0000	0.0	2015-11-26 18:09:55
		23730	0:01:46:000	400.5	0.0101	0.0	0.0003	0.2949	0.0001	0.1	2015-11-26 18:15:14
553	0.0003	0.0003	0.3007	0.2949	98.10	0.0001	0.0000	128.9	0.0000	0.00	0.0003	0.2949	100.00	0:01:46	0.0000	0.0000	0.0000	0.0755	0.0417	55.19%
	1109	CC_DChg	0:01:46:000	0.0003	0.2947	0.0000	0.0417	0.0	361.7	-2.4	0.0	0.0
	1112	CC_Chg	0:01:48:000	0.0003	0.3008	0.0001	0.0751	0.0	36.5	400.8	0.0	0.0
		24007	0:00:00:000	361.7	-0.0100	0.0	0.0000	0.0000	0.0000	0.0	2015-11-26 18:36:38
		24076	0:00:00:000	36.5	0.0100	0.0	0.0000	0.0000	0.0000	0.0	2015-11-26 18:41:56
		24146	0:00:05:000	330.7	-0.0100	0.0	0.0000	0.0139	0.0000	0.0	2015-11-26 18:47:23
		24215	0:00:05:000	52.7	0.0100	0.0	0.0000	0.0139	0.0000	0.0	2015-11-26 18:52:43
		24285	0:00:10:000	297.3	-0.0100	0.0	0.0000	0.0278	0.0000	0.0	2015-11-26 18:58:14
		24354	0:00:10:000	103.5	0.0100	0.0	0.0000	0.0278	0.0000	0.0	2015-11-26 19:03:36
		24424	0:00:15:000	274.0	-0.0100	0.0	0.0000	0.0417	0.0000	0.0	2015-11-26 19:09:05
		24493	0:00:15:000	132.3	0.0100	0.0	0.0000	0.0417	0.0000	0.0	2015-11-26 19:14:27
		24563	0:00:20:000	244.6	-0.0100	0.0	0.0001	0.0556	0.0000	0.0	2015-11-26 19:19:55
		24632	0:00:20:000	154.6	0.0100	0.0	0.0001	0.0556	0.0000	0.0	2015-11-26 19:25:18
		24702	0:00:25:000	225.6	-0.0100	0.0	0.0001	0.0695	0.0000	0.0	2015-11-26 19:30:46
		24771	0:00:25:000	170.2	0.0100	0.0	0.0001	0.0694	0.0000	0.0	2015-11-26 19:36:09
		24841	0:00:30:000	208.9	-0.0100	0.0	0.0001	0.0833	0.0000	0.0	2015-11-26 19:41:38
		24910	0:00:30:000	189.7	0.0100	0.0	0.0001	0.0833	0.0000	0.0	2015-11-26 19:47:00
		24980	0:00:35:000	189.1	-0.0100	0.0	0.0001	0.0973	0.0000	0.0	2015-11-26 19:52:30
		25049	0:00:35:000	208.0	0.0100	0.0	0.0001	0.0972	0.0000	0.0	2015-11-26 19:57:52
		25119	0:00:40:000	173.6	-0.0100	0.0	0.0001	0.1111	0.0000	0.0	2015-11-26 20:03:21
		25188	0:00:40:000	226.0	0.0100	0.0	0.0001	0.1111	0.0000	0.0	2015-11-26 20:08:45
		25258	0:00:45:000	157.1	-0.0100	0.0	0.0001	0.1250	0.0000	0.0	2015-11-26 20:14:13
		25327	0:00:45:000	239.3	0.0100	0.0	0.0001	0.1250	0.0000	0.0	2015-11-26 20:19:36
		25397	0:00:50:000	145.3	-0.0100	0.0	0.0001	0.1389	0.0000	0.0	2015-11-26 20:25:05
		25466	0:00:50:000	254.8	0.0100	0.0	0.0001	0.1389	0.0000	0.0	2015-11-26 20:30:26
		25536	0:00:55:000	129.8	-0.0100	0.0	0.0002	0.1528	0.0000	0.0	2015-11-26 20:35:55
		25605	0:00:55:000	270.0	0.0100	0.0	0.0002	0.1528	0.0000	0.0	2015-11-26 20:41:19
		25675	0:01:00:000	116.2	-0.0100	0.0	0.0002	0.1667	0.0000	0.0	2015-11-26 20:46:48
		25744	0:01:00:000	283.6	0.0100	0.0	0.0002	0.1667	0.0000	0.0	2015-11-26 20:52:10
		25814	0:01:05:000	104.1	-0.0100	0.0	0.0002	0.1806	0.0000	0.0	2015-11-26 20:57:34
		25883	0:01:05:000	300.0	0.0100	0.0	0.0002	0.1806	0.0000	0.0	2015-11-26 21:02:54
		25953	0:01:10:000	88.3	-0.0100	0.0	0.0002	0.1944	0.0000	0.0	2015-11-26 21:08:17
		26022	0:01:10:000	313.4	0.0100	0.0	0.0002	0.1944	0.0000	0.0	2015-11-26 21:13:36
		26092	0:01:15:000	74.7	-0.0100	0.0	0.0002	0.2083	0.0000	0.0	2015-11-26 21:18:59
		26161	0:01:15:000	330.7	0.0100	0.0	0.0002	0.2083	0.0000	0.0	2015-11-26 21:24:18
		26231	0:01:20:000	62.3	-0.0100	0.0	0.0002	0.2222	0.0000	0.0	2015-11-26 21:29:39
		26300	0:01:20:000	341.6	0.0100	0.0	0.0002	0.2222	0.0000	0.0	2015-11-26 21:34:55
		26370	0:01:35:000	23.8	-0.0100	0.0	0.0003	0.2639	0.0000	0.0	2015-11-26 21:40:24
		26439	0:01:35:000	377.9	0.0100	0.0	0.0003	0.2639	0.0001	0.1	2015-11-26 21:45:40
		26509	0:01:47:000	-1.8	-0.0100	0.0	0.0003	0.2973	0.0000	0.0	2015-11-26 21:51:05
		26577	0:00:00:000	367.6	-0.0100	0.0	0.0000	0.0000	0.0000	0.0	2015-11-26 21:56:21
		26646	0:00:05:000	64.7	0.0100	0.0	0.0000	0.0139	0.0000	0.0	2015-11-26 22:01:40
		26716	0:00:25:000	223.2	-0.0100	0.0	0.0001	0.0694	0.0000	0.0	2015-11-26 22:07:11
		26785	0:00:40:000	228.1	0.0100	0.0	0.0001	0.1112	0.0000	0.0	2015-11-26 22:12:38
		26855	0:01:00:000	113.7	-0.0100	0.0	0.0002	0.1667	0.0000	0.0	2015-11-26 22:18:08
		26924	0:01:05:000	302.5	0.0100	0.0	0.0002	0.1806	0.0000	0.0	2015-11-26 22:23:27
		26994	0:01:25:000	47.7	-0.0100	0.0	0.0002	0.2361	0.0000	0.0	2015-11-26 22:28:59
		27063	0:01:40:000	392.7	0.0100	0.0	0.0003	0.2778	0.0001	0.1	2015-11-26 22:34:26
		27131	0:00:00:000	37.5	0.0100	0.0	0.0000	0.0000	0.0000	0.0	2015-11-26 22:39:41
		27201	0:00:15:000	270.9	-0.0100	0.0	0.0000	0.0417	0.0000	0.0	2015-11-26 22:45:03
		27270	0:00:25:000	179.1	0.0100	0.0	0.0001	0.0694	0.0000	0.0	2015-11-26 22:50:23
		27340	0:00:45:000	159.0	-0.0100	0.0	0.0001	0.1250	0.0000	0.0	2015-11-26 22:55:50
		27409	0:01:00:000	292.9	0.0100	0.0	0.0002	0.1667	0.0000	0.0	2015-11-26 23:01:11
		27479	0:01:20:000	53.6	-0.0100	0.0	0.0002	0.2222	0.0000	0.0	2015-11-26 23:06:34
		27548	0:01:35:000	380.7	0.0100	0.0	0.0003	0.2639	0.0001	0.1	2015-11-26 23:11:54
637	0.0003	0.0003	0.2917	0.2833	97.14	0.0001	0.0000	139.8	0.0000	0.00	0.0003	0.2833	100.00	0:01:42	0.0000	0.0000	0.0000	0.0731	0.0408	55.85%
		27686	0:00:05:000	331.4	-0.0100	0.0	0.0000	0.0139	0.0000	0.0	2015-11-26 23:22:27
		27755	0:00:20:000	152.5	0.0100	0.0	0.0001	0.0556	0.0000	0.0	2015-11-26 23:27:50
		27825	0:00:40:000	172.6	-0.0100	0.0	0.0001	0.1111	0.0000	0.0	2015-11-26 23:33:22
		27894	0:00:55:000	272.8	0.0100	0.0	0.0002	0.1528	0.0000	0.0	2015-11-26 23:38:45
		27964	0:01:15:000	72.2	-0.0100	0.0	0.0002	0.2083	0.0000	0.0	2015-11-26 23:44:15
		28033	0:01:30:000	367.6	0.0100	0.0	0.0003	0.2500	0.0001	0.1	2015-11-26 23:49:40
648	0.0003	0.0003	0.2861	0.2833	99.03	0.0001	0.0000	141.6	0.0000	0.00	0.0003	0.2833	100.00	0:01:42	0.0000	0.0000	0.0000	0.0719	0.0408	56.64%
		28171	0:00:10:000	301.6	-0.0100	0.0	0.0000	0.0278	0.0000	0.0	2015-11-27 00:00:24
		28240	0:00:20:000	154.6	0.0100	0.0	0.0001	0.0556	0.0000	0.0	2015-11-27 00:05:46
		28310	0:00:40:000	172.3	-0.0100	0.0	0.0001	0.1111	0.0000	0.0	2015-11-27 00:11:18
		28379	0:00:55:000	275.6	0.0100	0.0	0.0002	0.1528	0.0000	0.0	2015-11-27 00:16:43
		28449	0:01:10:000	83.7	-0.0100	0.0	0.0002	0.1944	0.0000	0.0	2015-11-27 00:22:12
		28518	0:01:20:000	340.4	0.0100	0.0	0.0002	0.2222	0.0000	0.0	2015-11-27 00:27:35
		28588	0:01:35:000	21.3	-0.0100	0.0	0.0003	0.2639	0.0000	0.0	2015-11-27 00:33:03
	1321	CC_DChg	0:01:44:000	0.0003	0.2889	0.0000	0.0417	0.0	362.1	-1.8	0.0	0.0
		28725	0:00:05:000	67.8	0.0100	0.0	0.0000	0.0139	0.0000	0.0	2015-11-27 00:43:41
		28795	0:00:20:000	248.6	-0.0100	0.0	0.0001	0.0556	0.0000	0.0	2015-11-27 00:49:07
		28864	0:00:30:000	193.4	0.0100	0.0	0.0001	0.0833	0.0000	0.0	2015-11-27 00:54:29
		28934	0:00:45:000	157.8	-0.0100	0.0	0.0001	0.1250	0.0000	0.0	2015-11-27 00:59:57
		29003	0:00:55:000	274.6	0.0100	0.0	0.0002	0.1528	0.0000	0.0	2015-11-27 01:05:20
		29073	0:01:15:000	74.0	-0.0100	0.0	0.0002	0.2083	0.0000	0.0	2015-11-27 01:10:51
		29142	0:01:30:000	364.5	0.0100	0.0	0.0003	0.2500	0.0001	0.1	2015-11-27 01:16:17
		29212	0:01:35:000	23.2	-0.0100	0.0	0.0003	0.2639	0.0000	0.0	2015-11-27 01:21:37
	1349	CC_DChg	0:01:42:000	0.0003	0.2833	0.0000	0.0406	0.0	360.8	0.0	0.0	0.0
		29349	0:00:10:000	101.0	0.0100	0.0	0.0000	0.0278	0.0000	0.0	2015-11-27 01:32:19
		29419	0:00:25:000	221.9	-0.0100	0.0	0.0001	0.0694	0.0000	0.0	2015-11-27 01:37:47
		29488	0:00:40:000	228.1	0.0100	0.0	0.0001	0.1111	0.0000	0.0	2015-11-27 01:43:14
		29558	0:01:00:000	115.0	-0.0100	0.0	0.0002	0.1667	0.0000	0.0	2015-11-27 01:48:45
		29627	0:01:10:000	315.6	0.0100	0.0	0.0002	0.1944	0.0000	0.0	2015-11-27 01:54:08
		29697	0:01:25:000	50.8	-0.0100	0.0	0.0002	0.2361	0.0000	0.0	2015-11-27 01:59:36
		29766	0:01:35:000	379.1	0.0100	0.0	0.0003	0.2639	0.0001	0.1	2015-11-27 02:05:00
		29836	0:01:44:000	-1.8	-0.0100	0.0	0.0003	0.2889	0.0000	0.0	2015-11-27 02:10:23
		29904	0:00:05:000	343.1	-0.0100	0.0	0.0000	0.0139	0.0000	0.0	2015-11-27 02:15:39
		29973	0:00:15:000	126.1	0.0100	0.0	0.0000	0.0417	0.0000	0.0	2015-11-27 02:21:01
		30043	0:00:25:000	223.8	-0.0100	0.0	0.0001	0.0694	0.0000	0.0	2015-11-27 02:26:25
		30112	0:00:35:000	208.0	0.0100	0.0	0.0001	0.0972	0.0000	0.0	2015-11-27 02:31:47
		30182	0:00:50:000	144.4	-0.0100	0.0	0.0001	0.1389	0.0000	0.0	2015-11-27 02:37:14
		30251	0:00:50:000	258.5	0.0100	0.0	0.0001	0.1389	0.0000	0.0	2015-11-27 02:42:29
		30321	0:01:05:000	103.5	-0.0100	0.0	0.0002	0.1806	0.0000	0.0	2015-11-27 02:47:56
		30390	0:01:20:000	343.8	0.0100	0.0	0.0002	0.2223	0.0000	0.0	2015-11-27 02:53:23
		30460	0:01:40:000	8.6	-0.0100	0.0	0.0003	0.2778	0.0000	0.0	2015-11-27 02:58:54
		30529	0:01:45:000	402.7	0.0100	0.0	0.0003	0.2918	0.0001	0.1	2015-11-27 03:04:11
		30597	0:00:00:000	36.5	0.0100	0.0	0.0000	0.0000	0.0000	0.0	2015-11-27 03:09:26
		30667	0:00:20:000	245.8	-0.0100	0.0	0.0001	0.0556	0.0000	0.0	2015-11-27 03:14:56
		30736	0:00:30:000	190.0	0.0100	0.0	0.0001	0.0833	0.0000	0.0	2015-11-27 03:20:19
		30806	0:00:40:000	172.9	-0.0100	0.0	0.0001	0.1111	0.0000	0.0	2015-11-27 03:25:44
		30875	0:00:45:000	243.3	0.0100	0.0	0.0001	0.1250	0.0000	0.0	2015-11-27 03:31:03
		30945	0:01:00:000	117.1	-0.0100	0.0	0.0002	0.1667	0.0000	0.0	2015-11-27 03:36:31
		31014	0:01:00:000	286.4	0.0100	0.0	0.0002	0.1667	0.0000	0.0	2015-11-27 03:41:46
		31084	0:01:10:000	85.8	-0.0100	0.0	0.0002	0.1944	0.0000	0.0	2015-11-27 03:47:09
		31153	0:01:25:000	350.9	0.0100	0.0	0.0002	0.2361	0.0001	0.1	2015-11-27 03:52:35
		31223	0:01:40:000	26.9	-0.0100	0.0	0.0003	0.2778	0.0000	0.0	2015-11-27 03:58:02
		31292	0:01:41:000	401.7	0.0100	0.0	0.0003	0.2806	0.0001	0.1	2015-11-27 04:03:17
		31360	0:00:05:000	52.3	0.0100	0.0	0.0000	0.0139	0.0000	0.0	2015-11-27 04:08:32
		31430	0:00:25:000	224.7	-0.0100	0.0	0.0001	0.0694	0.0000	0.0	2015-11-27 04:14:02
		31499	0:00:35:000	215.1	0.0100	0.0	0.0001	0.0972	0.0000	0.0	2015-11-27 04:19:24
		31569	0:00:55:000	125.5	-0.0100	0.0	0.0002	0.1528	0.0000	0.0	2015-11-27 04:24:49
		31638	0:01:10:000	317.1	0.0100	0.0	0.0002	0.1944	0.0000	0.0	2015-11-27 04:30:12
		31708	0:01:30:000	31.9	-0.0100	0.0	0.0003	0.2500	0.0000	0.0	2015-11-27 04:35:41
		31777	0:01:44:000	402.7	0.0100	0.0	0.0003	0.2889	0.0001	0.1	2015-11-27 04:41:06
		31845	0:00:00:000	40.6	0.0100	0.0	0.0000	0.0000	0.0000	0.0	2015-11-27 04:46:20
		31915	0:00:10:000	295.4	-0.0100	0.0	0.0000	0.0278	0.0000	0.0	2015-11-27 04:51:41
		31984	0:00:20:000	152.8	0.0100	0.0	0.0001	0.0556	0.0000	0.0	2015-11-27 04:57:02
		32054	0:00:40:000	172.9	-0.0100	0.0	0.0001	0.1111	0.0000	0.0	2015-11-27 05:02:29
		32123	0:00:45:000	244.6	0.0100	0.0	0.0001	0.1250	0.0000	0.0	2015-11-27 05:07:54
		32193	0:01:05:000	98.5	-0.0100	0.0	0.0002	0.1806	0.0000	0.0	2015-11-27 05:13:24
		32262	0:01:15:000	332.0	0.0100	0.0	0.0002	0.2083	0.0000	0.0	2015-11-27 05:18:47
		32332	0:01:35:000	18.9	-0.0100	0.0	0.0003	0.2639	0.0000	0.0	2015-11-27 05:24:15
		32401	0:01:44:000	402.0	0.0100	0.0	0.0003	0.2889	0.0001	0.1	2015-11-27 05:29:33
		32469	0:00:00:000	55.4	0.0100	0.0	0.0000	0.0000	0.0000	0.0	2015-11-27 05:34:50
		32539	0:00:20:000	250.1	-0.0100	0.0	0.0001	0.0556	0.0000	0.0	2015-11-27 05:40:14
		32608	0:00:30:000	195.6	0.0100	0.0	0.0001	0.0834	0.0000	0.0	2015-11-27 05:45:38
		32678	0:00:45:000	159.9	-0.0100	0.0	0.0001	0.1250	0.0000	0.0	2015-11-27 05:51:04
		32747	0:01:00:000	292.0	0.0100	0.0	0.0002	0.1667	0.0000	0.0	2015-11-27 05:56:29
		32817	0:01:15:000	70.3	-0.0100	0.0	0.0002	0.2083	0.0000	0.0	2015-11-27 06:01:52
		32886	0:01:30:000	369.2	0.0100	0.0	0.0003	0.2501	0.0001	0.1	2015-11-27 06:07:13
757	0.0003	0.0003	0.2779	0.2807	101.01	0.0001	0.0000	138.2	0.0000	0.00	0.0003	0.2807	100.00	0:01:41	0.0000	0.0000	0.0000	0.0695	0.0407	58.57%
		33024	0:00:10:000	296.6	-0.0100	0.0	0.0000	0.0278	0.0000	0.0	2015-11-27 06:17:48
		33093	0:00:25:000	177.3	0.0100	0.0	0.0001	0.0694	0.0000	0.0	2015-11-27 06:23:08
		33163	0:00:45:000	155.3	-0.0100	0.0	0.0001	0.1250	0.0000	0.0	2015-11-27 06:28:34
		33232	0:01:00:000	291.7	0.0100	0.0	0.0002	0.1667	0.0000	0.0	2015-11-27 06:33:57
		33302	0:01:20:000	56.7	-0.0100	0.0	0.0002	0.2223	0.0000	0.0	2015-11-27 06:39:24
		33371	0:01:35:000	379.4	0.0100	0.0	0.0003	0.2639	0.0001	0.1	2015-11-27 06:44:48
	1536	CC_Chg	0:01:43:000	0.0003	0.2861	0.0001	0.0717	0.0	66.6	402.4	0.0	0.0
		33509	0:00:15:000	269.0	-0.0100	0.0	0.0000	0.0417	0.0000	0.0	2015-11-27 06:55:30
		33578	0:00:30:000	193.4	0.0100	0.0	0.0001	0.0833	0.0000	0.0	2015-11-27 07:00:55
		33648	0:00:50:000	141.9	-0.0100	0.0	0.0001	0.1389	0.0000	0.0	2015-11-27 07:06:25
		33717	0:01:05:000	302.2	0.0100	0.0	0.0002	0.1806	0.0000	0.0	2015-11-27 07:11:50
		33787	0:01:20:000	61.6	-0.0100	0.0	0.0002	0.2223	0.0000	0.0	2015-11-27 07:17:16
		33856	0:01:35:000	379.1	0.0100	0.0	0.0003	0.2640	0.0001	0.1	2015-11-27 07:22:41
779	0.0003	0.0003	0.2861	0.2861	100.00	0.0001	0.0000	142.9	0.0000	0.00	0.0003	0.2861	100.00	0:01:43	0.0000	0.0000	0.0000	0.0714	0.0416	58.23%
		33994	0:00:10:000	295.4	-0.0100	0.0	0.0000	0.0278	0.0000	0.0	2015-11-27 07:33:22
		34063	0:00:25:000	174.2	0.0100	0.0	0.0001	0.0694	0.0000	0.0	2015-11-27 07:38:46
		34133	0:00:45:000	156.2	-0.0100	0.0	0.0001	0.1250	0.0000	0.0	2015-11-27 07:44:16
		34202	0:01:00:000	287.6	0.0100	0.0	0.0002	0.1667	0.0000	0.0	2015-11-27 07:49:42
		34272	0:01:20:000	60.4	-0.0100	0.0	0.0002	0.2222	0.0000	0.0	2015-11-27 07:55:12
		34341	0:01:25:000	354.9	0.0100	0.0	0.0002	0.2362	0.0001	0.1	2015-11-27 08:00:30
		34411	0:01:40:000	9.9	-0.0100	0.0	0.0003	0.2778	0.0000	0.0	2015-11-27 08:05:57
		34480	0:01:43:000	401.1	0.0100	0.0	0.0003	0.2862	0.0001	0.1	2015-11-27 08:11:14
		34548	0:00:05:000	66.9	0.0100	0.0	0.0000	0.0139	0.0000	0.0	2015-11-27 08:16:30
		34618	0:00:25:000	226.9	-0.0100	0.0	0.0001	0.0695	0.0000	0.0	2015-11-27 08:22:01
		34687	0:00:30:000	190.9	0.0100	0.0	0.0001	0.0833	0.0000	0.0	2015-11-27 08:27:20
		34757	0:00:40:000	175.7	-0.0100	0.0	0.0001	0.1111	0.0000	0.0	2015-11-27 08:32:44
		34826	0:00:55:000	274.6	0.0100	0.0	0.0002	0.1528	0.0000	0.0	2015-11-27 08:38:10
		34896	0:01:10:000	84.9	-0.0100	0.0	0.0002	0.1944	0.0000	0.0	2015-11-27 08:43:37
		34965	0:01:25:000	352.1	0.0100	0.0	0.0002	0.2362	0.0001	0.1	2015-11-27 08:49:05
		35035	0:01:40:000	12.4	-0.0100	0.0	0.0003	0.2780	0.0000	0.0	2015-11-27 08:54:33
		35104	0:01:45:000	402.4	0.0100	0.0	0.0003	0.2919	0.0001	0.1	2015-11-27 08:59:51
		35172	0:00:05:000	67.2	0.0100	0.0	0.0000	0.0139	0.0000	0.0	2015-11-27 09:05:07
		35242	0:00:25:000	223.8	-0.0100	0.0	0.0001	0.0695	0.0000	0.0	2015-11-27 09:10:38
		35311	0:00:35:000	213.2	0.0100	0.0	0.0001	0.0973	0.0000	0.0	2015-11-27 09:16:01
		35381	0:00:55:000	128.0	-0.0101	0.0	0.0002	0.1529	0.0000	0.0	2015-11-27 09:21:33
		35450	0:01:05:000	302.5	0.0100	0.0	0.0002	0.1806	0.0000	0.0	2015-11-27 09:26:56
		35520	0:01:15:000	73.7	-0.0100	0.0	0.0002	0.2084	0.0000	0.0	2015-11-27 09:32:20
		35589	0:01:20:000	340.0	0.0100	0.0	0.0002	0.2223	0.0000	0.0	2015-11-27 09:37:39
		35659	0:01:35:000	21.0	-0.0100	0.0	0.0003	0.2639	0.0000	0.0	2015-11-27 09:43:07
		35728	0:01:45:000	400.5	0.0100	0.0	0.0003	0.2919	0.0001	0.1	2015-11-27 09:48:29
		35796	0:00:00:000	66.0	0.0100	0.0	0.0000	0.0000	0.0000	0.0	2015-11-27 09:53:47
		35866	0:00:15:000	270.6	-0.0100	0.0	0.0000	0.0417	0.0000	0.0	2015-11-27 09:59:11
		35935	0:00:25:000	170.8	0.0101	0.0	0.0001	0.0695	0.0000	0.0	2015-11-27 10:04:34
		36005	0:00:35:000	191.9	-0.0100	0.0	0.0001	0.0974	0.0000	0.0	2015-11-27 10:09:58
		36074	0:00:35:000	208.0	0.0100	0.0	0.0001	0.0973	0.0000	0.0	2015-11-27 10:15:14
		36144	0:00:45:000	161.2	-0.0100	0.0	0.0001	0.1252	0.0000	0.0	2015-11-27 10:20:40
		36213	0:00:55:000	283.3	0.0100	0.0	0.0002	0.1533	0.0000	0.0	2015-11-27 10:26:04
		36283	0:01:20:000	62.0	-0.0100	0.0	0.0002	0.2226	0.0000	0.0	2015-11-27 10:31:33
		36352	0:01:30:000	375.4	0.0100	0.0	0.0003	0.2505	0.0001	0.1	2015-11-27 10:36:54
	1670	CC_Chg	0:01:37:000	0.0003	0.2700	0.0001	0.0675	0.0	70.6	400.2	0.0	0.0
		36490	0:00:25:000	223.2	-0.0100	0.0	0.0001	0.0694	0.0000	0.0	2015-11-27 10:47:35
		36559	0:00:45:000	252.6	0.0100	0.0	0.0001	0.1250	0.0000	0.0	2015-11-27 10:53:01
		36629	0:01:15:000	69.7	-0.0100	0.0	0.0002	0.2084	0.0000	0.0	2015-11-27 10:58:29
		36698	0:01:35:000	391.8	0.0100	0.0	0.0003	0.2642	0.0001	0.1	2015-11-27 11:03:51
		36766	0:00:05:000	69.1	0.0100	0.0	0.0000	0.0139	0.0000	0.0	2015-11-27 11:09:00
		36836	0:00:40:000	168.6	-0.0100	0.0	0.0001	0.1113	0.0000	0.0	2015-11-27 11:14:33
		36905	0:01:00:000	298.5	0.0100	0.0	0.0002	0.1668	0.0000	0.0	2015-11-27 11:19:53
		36975	0:01:30:000	21.0	-0.0100	0.0	0.0003	0.2501	0.0000	0.0	2015-11-27 11:25:22
	1699	CC_DChg	0:01:39:000	0.0003	0.2753	0.0000	0.0401	0.0	359.6	0.0	0.0	0.0
		37112	0:00:15:000	128.3	0.0100	0.0	0.0000	0.0417	0.0000	0.0	2015-11-27 11:35:54
		37182	0:00:35:000	187.8	-0.0100	0.0	0.0001	0.0973	0.0000	0.0	2015-11-27 11:41:21
		37251	0:00:50:000	258.8	0.0100	0.0	0.0001	0.1389	0.0000	0.0	2015-11-27 11:46:42
		37321	0:01:10:000	83.0	-0.0100	0.0	0.0002	0.1945	0.0000	0.0	2015-11-27 11:52:11
		37390	0:01:25:000	357.1	0.0100	0.0	0.0002	0.2363	0.0001	0.1	2015-11-27 11:57:33
		37460	0:01:42:000	-1.2	-0.0100	0.0	0.0003	0.2836	0.0000	0.0	2015-11-27 12:02:58
		37528	0:00:05:000	345.3	-0.0100	0.0	0.0000	0.0139	0.0000	0.0	2015-11-27 12:08:10
		37597	0:00:20:000	156.5	0.0100	0.0	0.0001	0.0556	0.0000	0.0	2015-11-27 12:13:34
		37667	0:00:40:000	170.5	-0.0101	0.0	0.0001	0.1116	0.0000	0.0	2015-11-27 12:19:04
		37736	0:00:55:000	274.6	0.0100	0.0	0.0002	0.1531	0.0000	0.0	2015-11-27 12:24:28
		37806	0:01:15:000	73.1	-0.0100	0.0	0.0002	0.2087	0.0000	0.0	2015-11-27 12:29:58
		37875	0:01:30:000	369.5	0.0101	0.0	0.0003	0.2507	0.0001	0.1	2015-11-27 12:35:22
870	0.0003	0.0003	0.2866	0.2866	100.01	0.0001	0.0000	144.7	0.0000	0.00	0.0003	0.2866	100.00	0:01:43	0.0000	0.0000	0.0000	0.0716	0.0416	58.09%
		38013	0:00:10:000	295.1	-0.0100	0.0	0.0000	0.0278	0.0000	0.0	2015-11-27 12:46:04
		38082	0:00:25:000	173.9	0.0100	0.0	0.0001	0.0695	0.0000	0.0	2015-11-27 12:51:29
		38152	0:00:45:000	159.3	-0.0100	0.0	0.0001	0.1254	0.0000	0.0	2015-11-27 12:57:00
		38221	0:00:55:000	279.9	0.0100	0.0	0.0002	0.1532	0.0000	0.0	2015-11-27 13:02:19
		38291	0:01:15:000	66.9	-0.0100	0.0	0.0002	0.2086	0.0000	0.0	2015-11-27 13:07:49
		38360	0:01:30:000	365.8	0.0100	0.0	0.0003	0.2505	0.0001	0.1	2015-11-27 13:13:12
		38430	0:01:44:000	-1.5	-0.0100	0.0	0.0003	0.2892	0.0000	0.0	2015-11-27 13:18:36
		38498	0:00:00:000	360.5	-0.0100	0.0	0.0000	0.0000	0.0000	0.0	2015-11-27 13:23:51
		38567	0:00:15:000	131.4	0.0100	0.0	0.0000	0.0417	0.0000	0.0	2015-11-27 13:29:16
		38637	0:00:35:000	191.2	-0.0100	0.0	0.0001	0.0973	0.0000	0.0	2015-11-27 13:34:48
		38706	0:00:45:000	252.0	0.0100	0.0	0.0001	0.1251	0.0000	0.0	2015-11-27 13:40:13
		38776	0:01:05:000	97.6	-0.0100	0.0	0.0002	0.1807	0.0000	0.0	2015-11-27 13:45:40
		38845	0:01:20:000	341.3	0.0100	0.0	0.0002	0.2223	0.0000	0.0	2015-11-27 13:51:03
		38915	0:01:40:000	8.6	-0.0100	0.0	0.0003	0.2780	0.0000	0.0	2015-11-27 13:56:33
		38983	0:00:00:000	361.1	-0.0100	0.0	0.0000	0.0000	0.0000	0.0	2015-11-27 14:01:49
		39052	0:00:10:000	106.0	0.0100	0.0	0.0000	0.0278	0.0000	0.0	2015-11-27 14:07:09
		39122	0:00:30:000	205.5	-0.0100	0.0	0.0001	0.0834	0.0000	0.0	2015-11-27 14:12:38
		39191	0:00:45:000	240.5	0.0100	0.0	0.0001	0.1251	0.0000	0.0	2015-11-27 14:18:01
		39261	0:01:05:000	108.1	-0.0100	0.0	0.0002	0.1809	0.0000	0.0	2015-11-27 14:23:30
		39330	0:01:10:000	323.9	0.0100	0.0	0.0002	0.1947	0.0000	0.0	2015-11-27 14:28:49
		39400	0:01:35:000	26.6	-0.0100	0.0	0.0003	0.2641	0.0000	0.0	2015-11-27 14:34:17
		39468	0:00:00:000	363.3	-0.0100	0.0	0.0000	0.0000	0.0000	0.0	2015-11-27 14:39:30
		39537	0:00:15:000	133.9	0.0100	0.0	0.0000	0.0417	0.0000	0.0	2015-11-27 14:44:48
		39607	0:00:45:000	154.3	-0.0100	0.0	0.0001	0.1252	0.0000	0.0	2015-11-27 14:50:16
		39676	0:01:05:000	314.6	0.0100	0.0	0.0002	0.1809	0.0000	0.0	2015-11-27 14:55:38
		39746	0:01:35:000	19.2	-0.0100	0.0	0.0003	0.2642	0.0000	0.0	2015-11-27 15:01:03
		39814	0:00:05:000	332.3	-0.0100	0.0	0.0000	0.0139	0.0000	0.0	2015-11-27 15:06:11
		39883	0:00:25:000	180.4	0.0100	0.0	0.0001	0.0695	0.0000	0.0	2015-11-27 15:11:31
		39953	0:00:55:000	124.3	-0.0100	0.0	0.0002	0.1531	0.0000	0.0	2015-11-27 15:16:57
		40022	0:01:15:000	344.7	0.0100	0.0	0.0002	0.2085	0.0000	0.0	2015-11-27 15:22:16
		40092	0:01:41:000	-1.2	-0.0100	0.0	0.0003	0.2808	0.0000	0.0	2015-11-27 15:27:36
		40160	0:00:15:000	265.6	-0.0100	0.0	0.0000	0.0417	0.0000	0.0	2015-11-27 15:32:47
		40229	0:00:35:000	219.4	0.0100	0.0	0.0001	0.0974	0.0000	0.0	2015-11-27 15:38:05
		40299	0:01:05:000	84.6	-0.0100	0.0	0.0002	0.1809	0.0000	0.0	2015-11-27 15:43:35
		40368	0:01:25:000	354.6	0.0100	0.0	0.0002	0.2365	0.0001	0.1	2015-11-27 15:48:52
		40438	0:01:39:000	0.0	-0.0101	0.0	0.0003	0.2755	0.0000	0.0	2015-11-27 15:54:15
	1857	CC_DChg	0:01:41:000	0.0003	0.2812	0.0000	0.0407	0.0	365.8	-2.4	0.0	0.0
		40575	0:00:05:000	53.3	0.0100	0.0	0.0000	0.0139	0.0000	0.0	2015-11-27 16:04:42
		40645	0:00:20:000	251.7	-0.0100	0.0	0.0001	0.0557	0.0000	0.0	2015-11-27 16:10:10
		40714	0:00:30:000	198.7	0.0101	0.0	0.0001	0.0835	0.0000	0.0	2015-11-27 16:15:31
		40784	0:00:45:000	161.8	-0.0100	0.0	0.0001	0.1251	0.0000	0.0	2015-11-27 16:20:54
		40853	0:00:50:000	267.2	0.0100	0.0	0.0001	0.1390	0.0000	0.0	2015-11-27 16:26:12
		40923	0:01:15:000	73.7	-0.0100	0.0	0.0002	0.2085	0.0000	0.0	2015-11-27 16:31:40
		40992	0:01:35:000	393.7	0.0101	0.0	0.0003	0.2641	0.0001	0.1	2015-11-27 16:37:09
		41060	0:00:00:000	40.9	0.0100	0.0	0.0000	0.0000	0.0000	0.0	2015-11-27 16:42:20
		41130	0:00:30:000	208.6	-0.0100	0.0	0.0001	0.0834	0.0000	0.0	2015-11-27 16:47:45
		41199	0:00:50:000	273.7	0.0100	0.0	0.0001	0.1389	0.0000	0.0	2015-11-27 16:53:08
		41269	0:01:20:000	57.6	-0.0100	0.0	0.0002	0.2226	0.0000	0.0	2015-11-27 16:58:33
		41338	0:01:37:000	401.4	0.0101	0.0	0.0003	0.2700	0.0001	0.1	2015-11-27 17:03:49
		41406	0:00:10:000	101.6	0.0100	0.0	0.0000	0.0279	0.0000	0.0	2015-11-27 17:08:59
		41476	0:00:40:000	172.0	-0.0100	0.0	0.0001	0.1112	0.0000	0.0	2015-11-27 17:14:24
		41489	0:01:41:000	-2.7	-0.0100	0.0	0.0003	0.2808	0.0000	0.0	2015-11-27 17:15:25