File: data/20151123_CuHcF_2A_for_elettra.txt
Cycle ID	Cap_Chg(mAh)	Cap_DChg(mAh)	RCap_Chg(mAh/g)	RCap_DChg(mAh/g)	Efficiency(%)	Engy_Chg(mWh)	Engy_DChg(mWh)	Mid-value Voltage(mV)	CC_Chg_Cap(mAh)	CC_Chg_Rat(%)	Platform_Cap(mAh)	Platform_RCap(mAh/g)	Platform_Efficiency(%)	Platform_Time	Capacitance_Chg(F)	Capacitance_DChg(F)	rd(mO)	REngy_Chg(mWh/g)	REngy_DChg(mWh/g)	Energy Efficiency(%)
	Step ID	Step Type	Step Time(H:M:S:ms)	Cap(mAh)	CmpCap(mAh/g)	Energy(mWh)	CmpEng(mWh/g)	Capacitance_Chg(F)	Start Vol(mV)	End Vol(mV)	Start Temperature(?)	End Temperature(?)
		Record ID	Time(H:M:S:ms)	Vol(mV)	Cur(mA)	Temperature(?)	Cap(mAh)	CmpCap(mAh/g)	Energy(mWh)	CmpEng(mWh/g)	Realtime
1	0.0001	0.0002	0.1458	0.1787	122.64	0.0000	0.0000	140.1	0.0000	0.00	0.0002	0.1787	100.00	0:01:05	0.0000	0.0000	0.0000	0.0388	0.0246	63.45%
		41	0:00:30:000	140.1	-0.0099	0.0	0.0001	0.0825	0.0000	0.0	2015-11-23 10:36:51
		80	0:00:00:000	51.1	0.0099	0.0	0.0000	0.0000	0.0000	0.0	2015-11-23 10:39:42
		121	0:00:50:000	314.0	0.0099	0.0	0.0001	0.1375	0.0000	0.0	2015-11-23 10:42:46
		161	0:00:15:000	228.1	-0.0099	0.0	0.0000	0.0413	0.0000	0.0	2015-11-23 10:45:40
		202	0:01:05:000	7.7	-0.0099	0.0	0.0002	0.1788	0.0000	0.0	2015-11-23 10:48:49
		241	0:00:30:000	232.8	0.0099	0.0	0.0001	0.0825	0.0000	0.0	2015-11-23 10:51:38
	19	CC_DChg	0:01:07:000	0.0002	0.1843	0.0000	0.0247	0.0	339.4	-2.7	0.0	0.0
		322	0:00:45:000	76.8	-0.0099	0.0	0.0001	0.1238	0.0000	0.0	2015-11-23 10:57:43
		361	0:00:10:000	125.2	0.0099	0.0	0.0000	0.0275	0.0000	0.0	2015-11-23 11:00:33
		402	0:01:00:000	355.2	0.0099	0.0	0.0002	0.1650	0.0000	0.0	2015-11-23 11:03:41
		442	0:00:25:000	161.2	-0.0099	0.0	0.0001	0.0688	0.0000	0.0	2015-11-23 11:06:35
16	0.0002	0.0002	0.1953	0.1843	94.37	0.0000	0.0000	115.9	0.0000	0.00	0.0002	0.1843	100.00	0:01:07	0.0000	0.0000	0.0000	0.0489	0.0243	49.69%
		522	0:00:40:000	284.5	0.0099	0.0	0.0001	0.1100	0.0000	0.0	2015-11-23 11:12:33
		562	0:00:05:000	308.1	-0.0099	0.0	0.0000	0.0138	0.0000	0.0	2015-11-23 11:15:26
		603	0:00:55:000	39.0	-0.0099	0.0	0.0002	0.1513	0.0000	0.0	2015-11-23 11:18:35
		642	0:00:20:000	196.5	0.0099	0.0	0.0001	0.0550	0.0000	0.0	2015-11-23 11:21:26
		683	0:01:10:000	395.8	0.0099	0.0	0.0002	0.1925	0.0000	0.0	2015-11-23 11:24:33
		723	0:00:35:000	116.2	-0.0099	0.0	0.0001	0.0963	0.0000	0.0	2015-11-23 11:27:25
		762	0:00:00:000	51.4	0.0099	0.0	0.0000	0.0000	0.0000	0.0	2015-11-23 11:30:15
		803	0:00:50:000	324.9	0.0099	0.0	0.0001	0.1375	0.0000	0.0	2015-11-23 11:33:23
		843	0:00:10:000	255.4	-0.0099	0.0	0.0000	0.0275	0.0000	0.0	2015-11-23 11:36:18
		884	0:00:55:000	44.6	-0.0099	0.0	0.0002	0.1513	0.0000	0.0	2015-11-23 11:39:28
		923	0:00:10:000	134.8	0.0099	0.0	0.0000	0.0275	0.0000	0.0	2015-11-23 11:42:18
		964	0:00:55:000	336.6	0.0099	0.0	0.0002	0.1513	0.0000	0.0	2015-11-23 11:45:28
		1004	0:00:10:000	265.0	-0.0099	0.0	0.0000	0.0275	0.0000	0.0	2015-11-23 11:48:23
		1045	0:00:50:000	62.9	-0.0099	0.0	0.0001	0.1375	0.0000	0.0	2015-11-23 11:51:30
		1084	0:00:00:000	46.5	0.0099	0.0	0.0000	0.0000	0.0000	0.0	2015-11-23 11:54:19
		1125	0:00:40:000	280.8	0.0099	0.0	0.0001	0.1100	0.0000	0.0	2015-11-23 11:57:25
		1166	0:01:16:000	401.4	0.0099	0.0	0.0002	0.2090	0.0001	0.1	2015-11-23 12:00:27
		1206	0:00:30:000	138.2	-0.0099	0.0	0.0001	0.0825	0.0000	0.0	2015-11-23 12:03:24
		1247	0:01:10:000	4.3	-0.0099	0.0	0.0002	0.1925	0.0000	0.0	2015-11-23 12:06:33
		1286	0:00:20:000	195.0	0.0099	0.0	0.0001	0.0550	0.0000	0.0	2015-11-23 12:09:24
		1327	0:01:00:000	349.7	0.0099	0.0	0.0002	0.1650	0.0000	0.0	2015-11-23 12:12:33
		1367	0:00:10:000	251.7	-0.0099	0.0	0.0000	0.0275	0.0000	0.0	2015-11-23 12:15:28
		1408	0:00:50:000	66.6	-0.0099	0.0	0.0001	0.1375	0.0000	0.0	2015-11-23 12:18:35
		1447	0:00:00:000	54.2	0.0099	0.0	0.0000	0.0000	0.0000	0.0	2015-11-23 12:21:30
		1488	0:00:40:000	278.3	0.0099	0.0	0.0001	0.1101	0.0000	0.0	2015-11-23 12:24:38
		1529	0:01:19:000	402.4	0.0099	0.0	0.0002	0.2174	0.0001	0.1	2015-11-23 12:27:47
		1569	0:00:30:000	145.7	-0.0099	0.0	0.0001	0.0827	0.0000	0.0	2015-11-23 12:30:50
		1610	0:01:10:000	7.7	-0.0099	0.0	0.0002	0.1926	0.0000	0.0	2015-11-23 12:34:02
		1649	0:00:15:000	167.7	0.0099	0.0	0.0000	0.0413	0.0000	0.0	2015-11-23 12:36:54
		1690	0:00:55:000	327.6	0.0099	0.0	0.0002	0.1517	0.0000	0.0	2015-11-23 12:40:06
		1730	0:00:00:000	345.9	-0.0099	0.0	0.0000	0.0000	0.0000	0.0	2015-11-23 12:43:05
		1771	0:00:40:000	105.7	-0.0099	0.0	0.0001	0.1104	0.0000	0.0	2015-11-23 12:46:15
		1812	0:01:13:000	-1.2	-0.0099	0.0	0.0002	0.2011	0.0000	0.0	2015-11-23 12:49:22
		1851	0:00:20:000	186.0	0.0100	0.0	0.0001	0.0553	0.0000	0.0	2015-11-23 12:52:16
		1892	0:00:55:000	326.4	0.0100	0.0	0.0002	0.1521	0.0000	0.0	2015-11-23 12:55:26
		1933	0:01:21:000	401.1	0.0100	0.0	0.0002	0.2237	0.0001	0.1	2015-11-23 12:58:28
		1973	0:00:25:000	170.8	-0.0099	0.0	0.0001	0.0693	0.0000	0.0	2015-11-23 13:01:26
		2014	0:01:00:000	39.0	-0.0099	0.0	0.0002	0.1658	0.0000	0.0	2015-11-23 13:04:36
		2053	0:00:05:000	87.7	0.0099	0.0	0.0000	0.0138	0.0000	0.0	2015-11-23 13:07:29
		2094	0:00:40:000	273.1	0.0099	0.0	0.0001	0.1104	0.0000	0.0	2015-11-23 13:10:39
		2135	0:01:15:000	382.8	0.0100	0.0	0.0002	0.2072	0.0001	0.1	2015-11-23 13:13:50
		2175	0:00:15:000	226.9	-0.0099	0.0	0.0000	0.0414	0.0000	0.0	2015-11-23 13:16:48
		2216	0:00:50:000	69.7	-0.0099	0.0	0.0001	0.1381	0.0000	0.0	2015-11-23 13:19:58
	140	CC_Chg	0:01:23:000	0.0002	0.2296	0.0001	0.0595	0.0	48.3	400.5	0.0	0.0
		2296	0:00:30:000	234.6	0.0099	0.0	0.0001	0.0829	0.0000	0.0	2015-11-23 13:25:59
		2337	0:01:05:000	353.7	0.0100	0.0	0.0002	0.1801	0.0000	0.0	2015-11-23 13:29:10
		2377	0:00:05:000	306.2	-0.0099	0.0	0.0000	0.0139	0.0000	0.0	2015-11-23 13:32:09
		2418	0:00:40:000	106.0	-0.0100	0.0	0.0001	0.1108	0.0000	0.0	2015-11-23 13:35:20
		2459	0:01:12:000	-3.1	-0.0100	0.0	0.0002	0.1992	0.0000	0.0	2015-11-23 13:38:26
		2498	0:00:20:000	190.0	0.0099	0.0	0.0001	0.0553	0.0000	0.0	2015-11-23 13:41:20
		2539	0:00:55:000	325.8	0.0100	0.0	0.0002	0.1523	0.0000	0.0	2015-11-23 13:44:29
	159	CC_DChg	0:01:11:000	0.0002	0.1967	0.0000	0.0265	0.0	347.8	-1.2	0.0	0.0
		2620	0:00:30:000	142.6	-0.0100	0.0	0.0001	0.0830	0.0000	0.0	2015-11-23 13:50:37
		2661	0:01:05:000	17.0	-0.0100	0.0	0.0002	0.1803	0.0000	0.0	2015-11-23 13:53:46
		2700	0:00:10:000	122.7	0.0099	0.0	0.0000	0.0277	0.0000	0.0	2015-11-23 13:56:36
		2741	0:00:50:000	311.5	0.0100	0.0	0.0001	0.1385	0.0000	0.0	2015-11-23 13:59:49
		2782	0:01:23:000	400.5	0.0100	0.0	0.0002	0.2296	0.0001	0.1	2015-11-23 14:02:57
		2822	0:00:25:000	165.5	-0.0100	0.0	0.0001	0.0693	0.0000	0.0	2015-11-23 14:05:56
		2863	0:01:05:000	14.8	-0.0099	0.0	0.0002	0.1801	0.0000	0.0	2015-11-23 14:09:09
		2902	0:00:15:000	169.2	0.0100	0.0	0.0000	0.0416	0.0000	0.0	2015-11-23 14:12:02
		2943	0:00:50:000	310.0	0.0100	0.0	0.0001	0.1387	0.0000	0.0	2015-11-23 14:15:10
		2984	0:01:23:000	401.4	0.0100	0.0	0.0002	0.2303	0.0001	0.1	2015-11-23 14:18:16
		3024	0:00:25:000	164.0	-0.0099	0.0	0.0001	0.0693	0.0000	0.0	2015-11-23 14:21:15
		3065	0:01:00:000	26.6	-0.0100	0.0	0.0002	0.1666	0.0000	0.0	2015-11-23 14:24:24
		3104	0:00:10:000	135.7	0.0100	0.0	0.0000	0.0277	0.0000	0.0	2015-11-23 14:27:16
		3145	0:00:50:000	310.3	0.0100	0.0	0.0001	0.1387	0.0000	0.0	2015-11-23 14:30:28
		3186	0:01:25:000	397.7	0.0100	0.0	0.0002	0.2354	0.0001	0.1	2015-11-23 14:33:35
		3226	0:00:20:000	198.1	-0.0100	0.0	0.0001	0.0554	0.0000	0.0	2015-11-23 14:36:26
		3267	0:01:00:000	26.0	-0.0100	0.0	0.0002	0.1660	0.0000	0.0	2015-11-23 14:39:36
		3306	0:00:10:000	136.0	0.0099	0.0	0.0000	0.0277	0.0000	0.0	2015-11-23 14:42:23
		3347	0:00:45:000	295.4	0.0100	0.0	0.0001	0.1249	0.0000	0.0	2015-11-23 14:45:28
		3388	0:01:20:000	390.6	0.0099	0.0	0.0002	0.2220	0.0001	0.1	2015-11-23 14:48:34
		3428	0:00:20:000	189.1	-0.0100	0.0	0.0001	0.0555	0.0000	0.0	2015-11-23 14:51:29
		3469	0:00:55:000	38.4	-0.0100	0.0	0.0002	0.1526	0.0000	0.0	2015-11-23 14:54:35
		3508	0:00:10:000	135.7	0.0099	0.0	0.0000	0.0277	0.0000	0.0	2015-11-23 14:57:25
		3549	0:00:55:000	327.6	0.0100	0.0	0.0002	0.1525	0.0000	0.0	2015-11-23 15:00:38
		3589	0:00:05:000	310.3	-0.0100	0.0	0.0000	0.0139	0.0000	0.0	2015-11-23 15:03:39
		3630	0:00:45:000	74.0	-0.0100	0.0	0.0001	0.1250	0.0000	0.0	2015-11-23 15:06:47
		3669	0:00:10:000	133.3	0.0100	0.0	0.0000	0.0278	0.0000	0.0	2015-11-23 15:09:44
		3710	0:00:55:000	325.5	0.0100	0.0	0.0002	0.1528	0.0000	0.0	2015-11-23 15:12:57
		3750	0:00:00:000	350.9	-0.0100	0.0	0.0000	0.0000	0.0000	0.0	2015-11-23 15:15:56
		3791	0:00:45:000	70.6	-0.0100	0.0	0.0001	0.1248	0.0000	0.0	2015-11-23 15:19:07
		3830	0:00:10:000	131.4	0.0100	0.0	0.0000	0.0278	0.0000	0.0	2015-11-23 15:22:03
		3871	0:00:55:000	328.3	0.0100	0.0	0.0002	0.1526	0.0000	0.0	2015-11-23 15:25:15
		3911	0:00:05:000	310.6	-0.0100	0.0	0.0000	0.0139	0.0000	0.0	2015-11-23 15:28:13
		3952	0:00:50:000	51.4	-0.0100	0.0	0.0001	0.1388	0.0000	0.0	2015-11-23 15:31:23
		3991	0:00:15:000	160.2	0.0100	0.0	0.0000	0.0416	0.0000	0.0	2015-11-23 15:34:18
		4032	0:01:00:000	343.1	0.0100	0.0	0.0002	0.1663	0.0000	0.0	2015-11-23 15:37:28
		4072	0:00:10:000	256.6	-0.0100	0.0	0.0000	0.0278	0.0000	0.0	2015-11-23 15:40:25
		4113	0:00:55:000	31.3	-0.0100	0.0	0.0002	0.1526	0.0000	0.0	2015-11-23 15:43:37
		4152	0:00:20:000	186.0	0.0100	0.0	0.0001	0.0554	0.0000	0.0	2015-11-23 15:46:32
		4193	0:01:00:000	336.6	0.0100	0.0	0.0002	0.1663	0.0000	0.0	2015-11-23 15:49:41
		4233	0:00:10:000	259.1	-0.0099	0.0	0.0000	0.0276	0.0000	0.0	2015-11-23 15:52:42
		4274	0:00:55:000	31.9	-0.0100	0.0	0.0002	0.1525	0.0000	0.0	2015-11-23 15:55:53
		4313	0:00:20:000	194.6	0.0100	0.0	0.0001	0.0553	0.0000	0.0	2015-11-23 15:58:47
		4354	0:01:05:000	355.2	0.0100	0.0	0.0002	0.1805	0.0000	0.0	2015-11-23 16:01:58
		4394	0:00:10:000	259.1	-0.0100	0.0	0.0000	0.0278	0.0000	0.0	2015-11-23 16:04:54
		4435	0:00:55:000	30.3	-0.0100	0.0	0.0002	0.1527	0.0000	0.0	2015-11-23 16:08:05
		4474	0:00:20:000	187.5	0.0100	0.0	0.0001	0.0556	0.0000	0.0	2015-11-23 16:10:58
		4515	0:01:05:000	357.1	0.0100	0.0	0.0002	0.1804	0.0000	0.0	2015-11-23 16:14:09
		4555	0:00:15:000	225.3	-0.0100	0.0	0.0000	0.0415	0.0000	0.0	2015-11-23 16:17:07
		4596	0:01:00:000	13.9	-0.0100	0.0	0.0002	0.1657	0.0000	0.0	2015-11-23 16:20:18
		4635	0:00:25:000	212.0	0.0100	0.0	0.0001	0.0691	0.0000	0.0	2015-11-23 16:23:14
		4676	0:01:10:000	371.7	0.0100	0.0	0.0002	0.1935	0.0000	0.0	2015-11-23 16:26:25
		4716	0:00:20:000	196.8	-0.0100	0.0	0.0001	0.0553	0.0000	0.0	2015-11-23 16:29:21
		4757	0:01:00:000	11.1	-0.0100	0.0	0.0002	0.1656	0.0000	0.0	2015-11-23 16:32:27
		4796	0:00:25:000	217.9	0.0100	0.0	0.0001	0.0689	0.0000	0.0	2015-11-23 16:35:20
		4837	0:01:10:000	371.0	0.0100	0.0	0.0002	0.1939	0.0000	0.0	2015-11-23 16:38:29
		4877	0:00:20:000	194.0	-0.0100	0.0	0.0001	0.0553	0.0000	0.0	2015-11-23 16:41:24
		4918	0:01:03:000	-1.2	-0.0099	0.0	0.0002	0.1739	0.0000	0.0	2015-11-23 16:44:31
		4957	0:00:30:000	235.3	0.0100	0.0	0.0001	0.0828	0.0000	0.0	2015-11-23 16:47:24
		4998	0:01:15:000	383.8	0.0099	0.0	0.0002	0.2065	0.0001	0.1	2015-11-23 16:50:35
		5038	0:00:25:000	157.8	-0.0099	0.0	0.0001	0.0689	0.0000	0.0	2015-11-23 16:53:31
	312	CC_Chg	0:01:22:000	0.0002	0.2262	0.0001	0.0591	0.0	49.9	402.7	0.0	0.0
		5118	0:00:40:000	278.7	0.0099	0.0	0.0001	0.1101	0.0000	0.0	2015-11-23 16:59:38
		5159	0:01:20:000	398.3	0.0099	0.0	0.0002	0.2208	0.0001	0.1	2015-11-23 17:02:43
		5199	0:00:30:000	141.3	-0.0099	0.0	0.0001	0.0830	0.0000	0.0	2015-11-23 17:05:39
	322	CC_Chg	0:01:20:000	0.0002	0.2205	0.0001	0.0578	0.0	50.5	400.5	0.0	0.0
		5279	0:00:40:000	278.7	0.0099	0.0	0.0001	0.1102	0.0000	0.0	2015-11-23 17:11:40
		5320	0:01:21:000	403.0	0.0099	0.0	0.0002	0.2236	0.0001	0.1	2015-11-23 17:14:46
		5360	0:00:35:000	116.8	-0.0099	0.0	0.0001	0.0966	0.0000	0.0	2015-11-23 17:17:45
	332	CC_Chg	0:01:20:000	0.0002	0.2210	0.0001	0.0572	0.0	51.4	400.5	0.0	0.0
		5440	0:00:40:000	276.8	0.0099	0.0	0.0001	0.1103	0.0000	0.0	2015-11-23 17:23:43
		5481	0:01:20:000	400.5	0.0099	0.0	0.0002	0.2213	0.0001	0.1	2015-11-23 17:26:48
		5521	0:00:35:000	117.1	-0.0100	0.0	0.0001	0.0966	0.0000	0.0	2015-11-23 17:29:47
		5560	0:00:00:000	53.0	0.0099	0.0	0.0000	0.0000	0.0000	0.0	2015-11-23 17:32:43
		5601	0:00:45:000	293.8	0.0100	0.0	0.0001	0.1244	0.0000	0.0	2015-11-23 17:35:51
	347	CC_DChg	0:01:02:000	0.0002	0.1714	0.0000	0.0239	0.0	346.6	-0.3	0.0	0.0
		5682	0:00:40:000	92.3	-0.0100	0.0	0.0001	0.1103	0.0000	0.0	2015-11-23 17:41:54
		5721	0:00:05:000	73.1	0.0099	0.0	0.0000	0.0138	0.0000	0.0	2015-11-23 17:44:45
		5762	0:00:50:000	314.3	0.0099	0.0	0.0001	0.1376	0.0000	0.0	2015-11-23 17:47:54
		5802	0:00:00:000	347.2	-0.0099	0.0	0.0000	0.0000	0.0000	0.0	2015-11-23 17:50:50
		5843	0:00:45:000	69.7	-0.0099	0.0	0.0001	0.1238	0.0000	0.0	2015-11-23 17:53:56
		5882	0:00:15:000	161.2	0.0100	0.0	0.0000	0.0413	0.0000	0.0	2015-11-23 17:56:51
		5923	0:01:05:000	361.4	0.0099	0.0	0.0002	0.1788	0.0000	0.0	2015-11-23 18:00:04
		5963	0:00:20:000	195.3	-0.0099	0.0	0.0001	0.0550	0.0000	0.0	2015-11-23 18:03:02
		6004	0:01:00:000	17.0	-0.0099	0.0	0.0002	0.1651	0.0000	0.0	2015-11-23 18:06:07
		6043	0:00:30:000	242.4	0.0099	0.0	0.0001	0.0825	0.0000	0.0	2015-11-23 18:09:04
		6084	0:01:18:000	400.2	0.0099	0.0	0.0002	0.2145	0.0001	0.1	2015-11-23 18:12:15
		6124	0:00:40:000	90.8	-0.0099	0.0	0.0001	0.1101	0.0000	0.0	2015-11-23 18:15:16
		6163	0:00:10:000	122.4	0.0099	0.0	0.0000	0.0275	0.0000	0.0	2015-11-23 18:18:12
		6204	0:00:55:000	328.3	0.0099	0.0	0.0002	0.1513	0.0000	0.0	2015-11-23 18:21:22
		6244	0:00:00:000	345.3	-0.0099	0.0	0.0000	0.0000	0.0000	0.0	2015-11-23 18:24:15
		6285	0:00:50:000	54.5	-0.0099	0.0	0.0001	0.1376	0.0000	0.0	2015-11-23 18:27:25
		6324	0:00:20:000	192.2	0.0099	0.0	0.0001	0.0551	0.0000	0.0	2015-11-23 18:30:23
		6365	0:01:10:000	375.4	0.0100	0.0	0.0002	0.1929	0.0000	0.0	2015-11-23 18:33:36
		6405	0:00:20:000	187.8	-0.0099	0.0	0.0001	0.0551	0.0000	0.0	2015-11-23 18:36:30
		6446	0:01:00:000	15.1	-0.0099	0.0	0.0002	0.1655	0.0000	0.0	2015-11-23 18:39:35
		6485	0:00:20:000	186.3	0.0099	0.0	0.0001	0.0551	0.0000	0.0	2015-11-23 18:42:25
		6526	0:01:05:000	356.5	0.0100	0.0	0.0002	0.1797	0.0000	0.0	2015-11-23 18:45:35
		6566	0:00:20:000	194.3	-0.0099	0.0	0.0001	0.0553	0.0000	0.0	2015-11-23 18:48:33
		6607	0:01:00:000	19.5	-0.0099	0.0	0.0002	0.1659	0.0000	0.0	2015-11-23 18:51:38
		6646	0:00:15:000	161.8	0.0099	0.0	0.0000	0.0415	0.0000	0.0	2015-11-23 18:54:23
		6687	0:00:55:000	326.7	0.0099	0.0	0.0002	0.1521	0.0000	0.0	2015-11-23 18:57:30
		6727	0:00:00:000	350.6	-0.0099	0.0	0.0000	0.0000	0.0000	0.0	2015-11-23 19:00:22
		6768	0:00:45:000	72.2	-0.0100	0.0	0.0001	0.1244	0.0000	0.0	2015-11-23 19:03:29
		6807	0:00:10:000	133.9	0.0100	0.0	0.0000	0.0277	0.0000	0.0	2015-11-23 19:06:22
		6848	0:00:50:000	311.8	0.0100	0.0	0.0001	0.1387	0.0000	0.0	2015-11-23 19:09:27
		6888	0:00:00:000	352.1	-0.0100	0.0	0.0000	0.0000	0.0000	0.0	2015-11-23 19:12:24
		6929	0:00:45:000	74.0	-0.0100	0.0	0.0001	0.1247	0.0000	0.0	2015-11-23 19:15:32
		6968	0:00:10:000	125.5	0.0100	0.0	0.0000	0.0277	0.0000	0.0	2015-11-23 19:18:27
		7009	0:00:55:000	322.1	0.0100	0.0	0.0002	0.1528	0.0000	0.0	2015-11-23 19:21:38
		7049	0:00:05:000	325.8	-0.0100	0.0	0.0000	0.0139	0.0000	0.0	2015-11-23 19:24:36
		7090	0:00:50:000	53.3	-0.0100	0.0	0.0001	0.1387	0.0000	0.0	2015-11-23 19:27:47
		7129	0:00:15:000	166.4	0.0100	0.0	0.0000	0.0416	0.0000	0.0	2015-11-23 19:30:43
		7170	0:01:00:000	341.3	0.0100	0.0	0.0002	0.1665	0.0000	0.0	2015-11-23 19:33:53
		7210	0:00:10:000	257.3	-0.0100	0.0	0.0000	0.0278	0.0000	0.0	2015-11-23 19:36:51
		7251	0:00:55:000	28.8	-0.0100	0.0	0.0002	0.1527	0.0000	0.0	2015-11-23 19:40:00
		7290	0:00:20:000	187.8	0.0100	0.0	0.0001	0.0554	0.0000	0.0	2015-11-23 19:42:54
		7331	0:01:05:000	355.9	0.0100	0.0	0.0002	0.1806	0.0000	0.0	2015-11-23 19:46:02
		7371	0:00:15:000	219.4	-0.0100	0.0	0.0000	0.0417	0.0000	0.0	2015-11-23 19:48:59
		7412	0:01:00:000	13.0	-0.0100	0.0	0.0002	0.1667	0.0000	0.0	2015-11-23 19:52:10
		7451	0:00:25:000	216.0	0.0100	0.0	0.0001	0.0693	0.0000	0.0	2015-11-23 19:55:02
		7492	0:01:10:000	366.1	0.0100	0.0	0.0002	0.1944	0.0000	0.0	2015-11-23 19:58:11
		7532	0:00:20:000	186.6	-0.0100	0.0	0.0001	0.0555	0.0000	0.0	2015-11-23 20:01:07
		7573	0:01:02:000	0.0	-0.0100	0.0	0.0002	0.1722	0.0000	0.0	2015-11-23 20:04:12
		7612	0:00:30:000	229.4	0.0100	0.0	0.0001	0.0833	0.0000	0.0	2015-11-23 20:07:06
		7653	0:01:15:000	383.4	0.0100	0.0	0.0002	0.2083	0.0001	0.1	2015-11-23 20:10:16
		7693	0:00:25:000	167.7	-0.0100	0.0	0.0001	0.0694	0.0000	0.0	2015-11-23 20:13:13
239	0.0002	0.0002	0.2278	0.1722	75.61	0.0001	0.0000	138.2	0.0000	0.00	0.0002	0.1722	100.00	0:01:02	0.0000	0.0000	0.0000	0.0592	0.0243	41.11%
		7773	0:00:35:000	257.9	0.0100	0.0	0.0001	0.0972	0.0000	0.0	2015-11-23 20:19:13
		7814	0:01:20:000	393.7	0.0100	0.0	0.0002	0.2222	0.0001	0.1	2015-11-23 20:22:23
		7854	0:00:30:000	136.4	-0.0100	0.0	0.0001	0.0833	0.0000	0.0	2015-11-23 20:25:20
	488	CC_Chg	0:01:22:000	0.0002	0.2277	0.0001	0.0593	0.0	49.2	402.0	0.0	0.0
		7934	0:00:40:000	277.4	0.0100	0.0	0.0001	0.1111	0.0000	0.0	2015-11-23 20:31:22
		7975	0:01:22:000	402.0	0.0100	0.0	0.0002	0.2278	0.0001	0.1	2015-11-23 20:34:27
		8015	0:00:35:000	110.9	-0.0100	0.0	0.0001	0.0972	0.0000	0.0	2015-11-23 20:37:26
		8054	0:00:00:000	52.7	0.0100	0.0	0.0000	0.0000	0.0000	0.0	2015-11-23 20:40:19
		8095	0:00:45:000	290.1	0.0100	0.0	0.0001	0.1250	0.0000	0.0	2015-11-23 20:43:27
	503	CC_DChg	0:01:01:000	0.0002	0.1694	0.0000	0.0232	0.0	340.0	-4.3	0.0	0.0
		8176	0:00:40:000	86.1	-0.0100	0.0	0.0001	0.1111	0.0000	0.0	2015-11-23 20:49:31
		8215	0:00:05:000	86.1	0.0100	0.0	0.0000	0.0139	0.0000	0.0	2015-11-23 20:52:22
		8256	0:00:50:000	306.6	0.0100	0.0	0.0001	0.1389	0.0000	0.0	2015-11-23 20:55:31
		8296	0:00:00:000	350.3	-0.0100	0.0	0.0000	0.0000	0.0000	0.0	2015-11-23 20:58:29
		8337	0:00:45:000	69.1	-0.0100	0.0	0.0001	0.1250	0.0000	0.0	2015-11-23 21:01:34
		8376	0:00:10:000	128.0	0.0100	0.0	0.0000	0.0278	0.0000	0.0	2015-11-23 21:04:24
		8417	0:00:55:000	327.0	0.0100	0.0	0.0002	0.1528	0.0000	0.0	2015-11-23 21:07:33
		8457	0:00:05:000	310.9	-0.0100	0.0	0.0000	0.0139	0.0000	0.0	2015-11-23 21:10:29
		8498	0:00:50:000	50.5	-0.0100	0.0	0.0001	0.1389	0.0000	0.0	2015-11-23 21:13:39
		8537	0:00:15:000	166.4	0.0100	0.0	0.0000	0.0417	0.0000	0.0	2015-11-23 21:16:31
		8578	0:00:50:000	296.0	0.0100	0.0	0.0001	0.1389	0.0000	0.0	2015-11-23 21:19:36
		8619	0:01:26:000	400.2	0.0100	0.0	0.0002	0.2389	0.0001	0.1	2015-11-23 21:22:39
		8659	0:00:35:000	102.9	-0.0100	0.0	0.0001	0.0972	0.0000	0.0	2015-11-23 21:25:40
		8698	0:00:05:000	81.8	0.0100	0.0	0.0000	0.0139	0.0000	0.0	2015-11-23 21:28:33
		8739	0:00:50:000	299.4	0.0100	0.0	0.0001	0.1389	0.0000	0.0	2015-11-23 21:31:44
		8780	0:01:30:000	401.7	0.0100	0.0	0.0003	0.2500	0.0001	0.1	2015-11-23 21:34:50
		8820	0:00:30:000	127.7	-0.0100	0.0	0.0001	0.0833	0.0000	0.0	2015-11-23 21:37:47
	548	CC_Chg	0:01:34:000	0.0003	0.2611	0.0001	0.0697	0.0	84.9	402.7	0.0	0.0
		8900	0:00:35:000	244.2	0.0100	0.0	0.0001	0.0972	0.0000	0.0	2015-11-23 21:43:46
		8941	0:01:15:000	360.2	0.0100	0.0	0.0002	0.2083	0.0000	0.0	2015-11-23 21:46:55
		8981	0:00:10:000	260.1	-0.0100	0.0	0.0000	0.0278	0.0000	0.0	2015-11-23 21:49:53
		9022	0:00:45:000	52.0	-0.0100	0.0	0.0001	0.1250	0.0000	0.0	2015-11-23 21:52:59
		9061	0:00:10:000	132.9	0.0100	0.0	0.0000	0.0278	0.0000	0.0	2015-11-23 21:55:49
		9102	0:00:50:000	294.8	0.0100	0.0	0.0001	0.1389	0.0000	0.0	2015-11-23 21:58:58
		9143	0:01:25:000	380.7	0.0100	0.0	0.0002	0.2361	0.0001	0.1	2015-11-23 22:02:04
		9183	0:00:20:000	178.8	-0.0100	0.0	0.0001	0.0556	0.0000	0.0	2015-11-23 22:05:03
		9224	0:00:56:000	-2.7	-0.0100	0.0	0.0002	0.1556	0.0000	0.0	2015-11-23 22:08:08
		9263	0:00:20:000	192.5	0.0100	0.0	0.0001	0.0556	0.0000	0.0	2015-11-23 22:10:59
		9304	0:00:55:000	307.5	0.0100	0.0	0.0002	0.1528	0.0000	0.0	2015-11-23 22:14:05
		9345	0:01:30:000	384.1	0.0100	0.0	0.0003	0.2500	0.0001	0.1	2015-11-23 22:17:12
		9385	0:00:15:000	211.4	-0.0100	0.0	0.0000	0.0417	0.0000	0.0	2015-11-23 22:20:08
		9426	0:00:50:000	25.4	-0.0100	0.0	0.0001	0.1389	0.0000	0.0	2015-11-23 22:23:18
		9465	0:00:10:000	135.1	0.0100	0.0	0.0000	0.0278	0.0000	0.0	2015-11-23 22:26:07
		9506	0:00:45:000	278.3	0.0100	0.0	0.0001	0.1250	0.0000	0.0	2015-11-23 22:29:17
		9547	0:01:15:000	350.0	0.0100	0.0	0.0002	0.2083	0.0000	0.0	2015-11-23 22:32:22
		9588	0:01:42:000	402.4	0.0100	0.0	0.0003	0.2833	0.0001	0.1	2015-11-23 22:35:26
		9628	0:00:20:000	183.2	-0.0100	0.0	0.0001	0.0556	0.0000	0.0	2015-11-23 22:38:22
		9669	0:00:54:000	0.0	-0.0100	0.0	0.0002	0.1500	0.0000	0.0	2015-11-23 22:41:30
		9708	0:00:15:000	158.7	0.0100	0.0	0.0000	0.0417	0.0000	0.0	2015-11-23 22:44:20
		9749	0:00:45:000	279.3	0.0100	0.0	0.0001	0.1250	0.0000	0.0	2015-11-23 22:47:26
		9790	0:01:15:000	348.4	0.0100	0.0	0.0002	0.2083	0.0000	0.0	2015-11-23 22:50:31
	605	CC_DChg	0:00:56:000	0.0002	0.1556	0.0000	0.0219	0.0	305.3	-4.9	0.0	0.0
		9871	0:00:25:000	151.5	-0.0100	0.0	0.0001	0.0694	0.0000	0.0	2015-11-23 22:56:34
305	0.0003	0.0002	0.2778	0.1500	54.00	0.0001	0.0000	150.9	0.0000	0.00	0.0002	0.1500	100.00	0:00:54	0.0000	0.0000	0.0000	0.0747	0.0216	28.98%
		9951	0:00:25:000	212.3	0.0100	0.0	0.0001	0.0694	0.0000	0.0	2015-11-23 23:02:36
		9992	0:00:55:000	302.5	0.0100	0.0	0.0002	0.1528	0.0000	0.0	2015-11-23 23:05:41
		10033	0:01:30:000	382.5	0.0100	0.0	0.0003	0.2500	0.0001	0.1	2015-11-23 23:08:51
		10073	0:00:10:000	258.2	-0.0100	0.0	0.0000	0.0278	0.0000	0.0	2015-11-23 23:11:45
		10114	0:00:40:000	72.2	-0.0100	0.0	0.0001	0.1111	0.0000	0.0	2015-11-23 23:14:50
	624	CC_Chg	0:01:41:000	0.0003	0.2806	0.0001	0.0762	0.0	85.5	402.0	0.0	0.0
		10194	0:00:25:000	208.0	0.0100	0.0	0.0001	0.0694	0.0000	0.0	2015-11-23 23:20:42
		10235	0:00:55:000	301.9	0.0100	0.0	0.0002	0.1528	0.0000	0.0	2015-11-23 23:23:49
		10276	0:01:30:000	376.0	0.0100	0.0	0.0003	0.2500	0.0001	0.1	2015-11-23 23:27:01
		10316	0:00:05:000	300.0	-0.0100	0.0	0.0000	0.0139	0.0000	0.0	2015-11-23 23:29:55
		10357	0:00:40:000	69.4	-0.0100	0.0	0.0001	0.1111	0.0000	0.0	2015-11-23 23:33:06
		10396	0:00:00:000	85.5	0.0100	0.0	0.0000	0.0000	0.0000	0.0	2015-11-23 23:36:01
		10437	0:00:30:000	226.6	0.0100	0.0	0.0001	0.0833	0.0000	0.0	2015-11-23 23:39:03
		10478	0:01:05:000	325.2	0.0100	0.0	0.0002	0.1806	0.0000	0.0	2015-11-23 23:42:14
		10519	0:01:40:000	399.9	0.0100	0.0	0.0003	0.2778	0.0001	0.1	2015-11-23 23:45:24
		10559	0:00:20:000	180.7	-0.0100	0.0	0.0001	0.0556	0.0000	0.0	2015-11-23 23:48:20
		10600	0:00:55:000	3.1	-0.0100	0.0	0.0002	0.1528	0.0000	0.0	2015-11-23 23:51:29
		10639	0:00:10:000	132.3	0.0100	0.0	0.0000	0.0278	0.0000	0.0	2015-11-23 23:54:14
		10680	0:00:45:000	279.9	0.0100	0.0	0.0001	0.1250	0.0000	0.0	2015-11-23 23:57:23
		10721	0:01:25:000	369.2	0.0100	0.0	0.0002	0.2361	0.0001	0.1	2015-11-24 00:00:36
		10761	0:00:05:000	323.9	-0.0100	0.0	0.0000	0.0139	0.0000	0.0	2015-11-24 00:03:30
		10802	0:00:45:000	46.5	-0.0100	0.0	0.0001	0.1250	0.0000	0.0	2015-11-24 00:06:44
		10841	0:00:05:000	88.9	0.0100	0.0	0.0000	0.0139	0.0000	0.0	2015-11-24 00:09:35
		10882	0:00:40:000	261.0	0.0100	0.0	0.0001	0.1111	0.0000	0.0	2015-11-24 00:12:43
		10923	0:01:15:000	349.0	0.0100	0.0	0.0002	0.2083	0.0000	0.0	2015-11-24 00:15:52
		10963	0:00:05:000	301.6	-0.0100	0.0	0.0000	0.0139	0.0000	0.0	2015-11-24 00:18:54
		11004	0:00:35:000	93.6	-0.0100	0.0	0.0001	0.0972	0.0000	0.0	2015-11-24 00:21:59
		11043	0:00:00:000	70.6	0.0100	0.0	0.0000	0.0000	0.0000	0.0	2015-11-24 00:24:57
		11084	0:00:30:000	232.8	0.0100	0.0	0.0001	0.0833	0.0000	0.0	2015-11-24 00:27:57
		11125	0:01:05:000	327.3	0.0100	0.0	0.0002	0.1806	0.0000	0.0	2015-11-24 00:31:05
	683	CC_DChg	0:00:54:000	0.0002	0.1500	0.0000	0.0215	0.0	318.7	-1.8	0.0	0.0
		11206	0:00:35:000	93.9	-0.0100	0.0	0.0001	0.0972	0.0000	0.0	2015-11-24 00:37:20
	688	CC_Chg	0:01:39:000	0.0003	0.2750	0.0001	0.0740	0.0	85.8	401.4	0.0	0.0
		11286	0:00:35:000	248.0	0.0100	0.0	0.0001	0.0972	0.0000	0.0	2015-11-24 00:43:22
		11327	0:01:15:000	353.4	0.0100	0.0	0.0002	0.2083	0.0000	0.0	2015-11-24 00:46:36
		11367	0:00:05:000	301.9	-0.0100	0.0	0.0000	0.0139	0.0000	0.0	2015-11-24 00:49:37
		11408	0:00:45:000	45.8	-0.0100	0.0	0.0001	0.1250	0.0000	0.0	2015-11-24 00:52:49
		11447	0:00:10:000	124.6	0.0100	0.0	0.0000	0.0278	0.0000	0.0	2015-11-24 00:55:42
		11488	0:00:50:000	293.8	0.0100	0.0	0.0001	0.1389	0.0000	0.0	2015-11-24 00:58:54
		11529	0:01:30:000	381.3	0.0100	0.0	0.0003	0.2500	0.0001	0.1	2015-11-24 01:02:05
		11569	0:00:20:000	172.3	-0.0100	0.0	0.0001	0.0556	0.0000	0.0	2015-11-24 01:05:05
355	0.0003	0.0002	0.2750	0.1528	55.56	0.0001	0.0000	120.9	0.0000	0.00	0.0002	0.1528	100.00	0:00:55	0.0000	0.0000	0.0000	0.0740	0.0214	28.89%
		11649	0:00:25:000	207.7	0.0100	0.0	0.0001	0.0694	0.0000	0.0	2015-11-24 01:11:11
		11690	0:01:00:000	316.2	0.0100	0.0	0.0002	0.1667	0.0000	0.0	2015-11-24 01:14:20
		11731	0:01:39:000	402.0	0.0100	0.0	0.0003	0.2750	0.0001	0.1	2015-11-24 01:17:33
		11771	0:00:30:000	122.1	-0.0100	0.0	0.0001	0.0833	0.0000	0.0	2015-11-24 01:20:36
	722	CC_Chg	0:01:41:000	0.0003	0.2806	0.0001	0.0756	0.0	83.3	402.0	0.0	0.0
		11851	0:00:30:000	230.3	0.0100	0.0	0.0001	0.0833	0.0000	0.0	2015-11-24 01:26:38
		11892	0:01:10:000	339.4	0.0100	0.0	0.0002	0.1944	0.0000	0.0	2015-11-24 01:29:51
		11932	0:00:00:000	304.4	-0.0100	0.0	0.0000	0.0000	0.0000	0.0	2015-11-24 01:32:57
		11973	0:00:40:000	69.7	-0.0100	0.0	0.0001	0.1111	0.0000	0.0	2015-11-24 01:36:04
		12012	0:00:05:000	72.5	0.0100	0.0	0.0000	0.0139	0.0000	0.0	2015-11-24 01:38:56
		12053	0:00:40:000	263.2	0.0100	0.0	0.0001	0.1111	0.0000	0.0	2015-11-24 01:42:04
		12094	0:01:15:000	352.1	0.0100	0.0	0.0002	0.2083	0.0000	0.0	2015-11-24 01:45:13
		12134	0:00:05:000	304.1	-0.0100	0.0	0.0000	0.0139	0.0000	0.0	2015-11-24 01:48:12
		12175	0:00:45:000	44.0	-0.0100	0.0	0.0001	0.1250	0.0000	0.0	2015-11-24 01:51:23
		12214	0:00:10:000	118.1	0.0100	0.0	0.0000	0.0278	0.0000	0.0	2015-11-24 01:54:15
		12255	0:00:50:000	294.5	0.0100	0.0	0.0001	0.1389	0.0000	0.0	2015-11-24 01:57:28
		12296	0:01:25:000	374.1	0.0100	0.0	0.0002	0.2361	0.0001	0.1	2015-11-24 02:00:35
		12336	0:00:10:000	251.4	-0.0100	0.0	0.0000	0.0278	0.0000	0.0	2015-11-24 02:03:31
		12377	0:00:45:000	45.2	-0.0100	0.0	0.0001	0.1250	0.0000	0.0	2015-11-24 02:06:38
		12416	0:00:10:000	128.3	0.0100	0.0	0.0000	0.0278	0.0000	0.0	2015-11-24 02:09:29
		12457	0:00:45:000	278.3	0.0100	0.0	0.0001	0.1250	0.0000	0.0	2015-11-24 02:12:38
		12498	0:01:20:000	362.4	0.0100	0.0	0.0002	0.2222	0.0001	0.1	2015-11-24 02:15:46
		12538	0:00:10:000	249.5	-0.0100	0.0	0.0000	0.0278	0.0000	0.0	2015-11-24 02:18:45
		12579	0:00:50:000	22.0	-0.0100	0.0	0.0001	0.1389	0.0000	0.0	2015-11-24 02:21:56
		12618	0:00:20:000	188.1	0.0100	0.0	0.0001	0.0556	0.0000	0.0	2015-11-24 02:24:51
		12659	0:01:00:000	319.0	0.0100	0.0	0.0002	0.1667	0.0000	0.0	2015-11-24 02:28:02
		12700	0:01:39:000	400.5	0.0100	0.0	0.0003	0.2750	0.0001	0.1	2015-11-24 02:31:13
		12740	0:00:30:000	122.4	-0.0100	0.0	0.0001	0.0833	0.0000	0.0	2015-11-24 02:34:14
		12779	0:00:00:000	84.0	0.0100	0.0	0.0000	0.0000	0.0000	0.0	2015-11-24 02:37:14
		12820	0:00:35:000	245.8	0.0100	0.0	0.0001	0.0972	0.0000	0.0	2015-11-24 02:40:17
		12861	0:01:15:000	351.2	0.0100	0.0	0.0002	0.2083	0.0000	0.0	2015-11-24 02:43:30
		12901	0:00:00:000	305.6	-0.0100	0.0	0.0000	0.0000	0.0000	0.0	2015-11-24 02:46:33
		12942	0:00:40:000	68.8	-0.0100	0.0	0.0001	0.1111	0.0000	0.0	2015-11-24 02:49:40
		12981	0:00:05:000	84.0	0.0100	0.0	0.0000	0.0139	0.0000	0.0	2015-11-24 02:52:32
		13022	0:00:45:000	279.3	0.0100	0.0	0.0001	0.1250	0.0000	0.0	2015-11-24 02:55:44
		13063	0:01:25:000	373.2	0.0100	0.0	0.0002	0.2361	0.0001	0.1	2015-11-24 02:58:57
		13103	0:00:15:000	206.1	-0.0100	0.0	0.0000	0.0417	0.0000	0.0	2015-11-24 03:01:57
		13144	0:00:54:000	-2.7	-0.0100	0.0	0.0002	0.1500	0.0000	0.0	2015-11-24 03:05:08
		13183	0:00:20:000	188.4	0.0100	0.0	0.0001	0.0556	0.0000	0.0	2015-11-24 03:08:02
		13224	0:00:55:000	306.6	0.0100	0.0	0.0002	0.1528	0.0000	0.0	2015-11-24 03:11:11
		13265	0:01:30:000	377.9	0.0100	0.0	0.0003	0.2500	0.0001	0.1	2015-11-24 03:14:20
		13305	0:00:15:000	215.7	-0.0100	0.0	0.0000	0.0417	0.0000	0.0	2015-11-24 03:17:18
		13346	0:00:50:000	20.4	-0.0100	0.0	0.0001	0.1389	0.0000	0.0	2015-11-24 03:20:26
		13385	0:00:20:000	190.0	0.0100	0.0	0.0001	0.0556	0.0000	0.0	2015-11-24 03:23:22
		13426	0:01:00:000	316.8	0.0100	0.0	0.0002	0.1667	0.0000	0.0	2015-11-24 03:26:34
		13467	0:01:38:000	400.2	0.0100	0.0	0.0003	0.2722	0.0001	0.1	2015-11-24 03:29:45
		13507	0:00:30:000	120.9	-0.0100	0.0	0.0001	0.0833	0.0000	0.0	2015-11-24 03:32:47
	826	CC_Chg	0:01:39:000	0.0003	0.2750	0.0001	0.0733	0.0	81.5	402.4	0.0	0.0
		13587	0:00:30:000	228.1	0.0100	0.0	0.0001	0.0833	0.0000	0.0	2015-11-24 03:38:49
		13628	0:01:10:000	340.0	0.0100	0.0	0.0002	0.1944	0.0000	0.0	2015-11-24 03:42:02
		13669	0:01:42:000	401.1	0.0100	0.0	0.0003	0.2833	0.0001	0.1	2015-11-24 03:45:06
		13709	0:00:30:000	125.5	-0.0100	0.0	0.0001	0.0833	0.0000	0.0	2015-11-24 03:48:05
	838	CC_Chg	0:01:37:000	0.0003	0.2694	0.0001	0.0722	0.0	73.1	401.1	0.0	0.0
		13789	0:00:30:000	229.1	0.0100	0.0	0.0001	0.0833	0.0000	0.0	2015-11-24 03:54:05
		13830	0:01:10:000	339.4	0.0100	0.0	0.0002	0.1944	0.0000	0.0	2015-11-24 03:57:16
	845	CC_DChg	0:00:54:000	0.0002	0.1500	0.0000	0.0214	0.0	302.8	-3.1	0.0	0.0
		13911	0:00:35:000	94.8	-0.0100	0.0	0.0001	0.0972	0.0000	0.0	2015-11-24 04:03:25
	850	CC_Chg	0:01:38:000	0.0003	0.2722	0.0001	0.0731	0.0	84.3	400.8	0.0	0.0
		13991	0:00:30:000	227.8	0.0100	0.0	0.0001	0.0833	0.0000	0.0	2015-11-24 04:09:20
		14032	0:01:10:000	342.8	0.0100	0.0	0.0002	0.1944	0.0000	0.0	2015-11-24 04:12:32
	857	CC_DChg	0:00:54:000	0.0002	0.1500	0.0000	0.0215	0.0	305.0	-0.9	0.0	0.0
		14113	0:00:35:000	87.1	-0.0100	0.0	0.0001	0.0972	0.0000	0.0	2015-11-24 04:18:38
		14152	0:00:00:000	88.9	0.0100	0.0	0.0000	0.0000	0.0000	0.0	2015-11-24 04:21:34
		14193	0:00:40:000	262.2	0.0100	0.0	0.0001	0.1111	0.0000	0.0	2015-11-24 04:24:39
		14234	0:01:20:000	362.1	0.0100	0.0	0.0002	0.2222	0.0001	0.1	2015-11-24 04:27:51
		14274	0:00:10:000	258.5	-0.0100	0.0	0.0000	0.0278	0.0000	0.0	2015-11-24 04:30:52
		14315	0:00:45:000	44.0	-0.0100	0.0	0.0001	0.1250	0.0000	0.0	2015-11-24 04:34:03
		14354	0:00:10:000	124.6	0.0100	0.0	0.0000	0.0278	0.0000	0.0	2015-11-24 04:36:54
		14395	0:00:45:000	272.8	0.0100	0.0	0.0001	0.1250	0.0000	0.0	2015-11-24 04:40:02
		14436	0:01:25:000	374.8	0.0100	0.0	0.0002	0.2361	0.0001	0.1	2015-11-24 04:43:16
		14476	0:00:10:000	248.6	-0.0100	0.0	0.0000	0.0278	0.0000	0.0	2015-11-24 04:46:14
		14517	0:00:50:000	23.2	-0.0100	0.0	0.0001	0.1389	0.0000	0.0	2015-11-24 04:49:27
		14556	0:00:15:000	158.4	0.0100	0.0	0.0000	0.0417	0.0000	0.0	2015-11-24 04:52:20
		14597	0:00:50:000	289.8	0.0100	0.0	0.0001	0.1389	0.0000	0.0	2015-11-24 04:55:27
		14638	0:01:25:000	372.9	0.0100	0.0	0.0002	0.2361	0.0001	0.1	2015-11-24 04:58:36
		14678	0:00:15:000	216.3	-0.0100	0.0	0.0000	0.0417	0.0000	0.0	2015-11-24 05:01:36
		14719	0:00:55:000	2.4	-0.0100	0.0	0.0002	0.1528	0.0000	0.0	2015-11-24 05:04:48
		14758	0:00:15:000	160.9	0.0100	0.0	0.0000	0.0417	0.0000	0.0	2015-11-24 05:07:36
		14799	0:00:50:000	294.5	0.0100	0.0	0.0001	0.1389	0.0000	0.0	2015-11-24 05:10:45
		14840	0:01:25:000	372.6	0.0100	0.0	0.0002	0.2361	0.0001	0.1	2015-11-24 05:13:53
		14880	0:00:10:000	249.5	-0.0100	0.0	0.0000	0.0278	0.0000	0.0	2015-11-24 05:16:48
		14921	0:00:45:000	43.7	-0.0100	0.0	0.0001	0.1250	0.0000	0.0	2015-11-24 05:19:57
		14960	0:00:15:000	164.6	0.0100	0.0	0.0000	0.0417	0.0000	0.0	2015-11-24 05:22:52
		15001	0:00:55:000	306.9	0.0100	0.0	0.0002	0.1528	0.0000	0.0	2015-11-24 05:26:03
		15042	0:01:35:000	394.0	0.0100	0.0	0.0003	0.2639	0.0001	0.1	2015-11-24 05:29:13
		15082	0:00:20:000	174.5	-0.0100	0.0	0.0001	0.0556	0.0000	0.0	2015-11-24 05:32:11
460	0.0003	0.0002	0.2722	0.1500	55.10	0.0001	0.0000	140.7	0.0000	0.00	0.0002	0.1500	100.00	0:00:54	0.0000	0.0000	0.0000	0.0735	0.0208	28.23%
		15162	0:00:30:000	228.4	0.0100	0.0	0.0001	0.0833	0.0000	0.0	2015-11-24 05:38:19
		15203	0:01:10:000	343.1	0.0100	0.0	0.0002	0.1944	0.0000	0.0	2015-11-24 05:41:32
		15243	0:00:00:000	308.1	-0.0100	0.0	0.0000	0.0000	0.0000	0.0	2015-11-24 05:44:37
		15284	0:00:40:000	69.1	-0.0100	0.0	0.0001	0.1111	0.0000	0.0	2015-11-24 05:47:44
		15323	0:00:10:000	119.9	0.0100	0.0	0.0000	0.0278	0.0000	0.0	2015-11-24 05:50:39
		15364	0:00:45:000	275.9	0.0100	0.0	0.0001	0.1250	0.0000	0.0	2015-11-24 05:53:47
		15405	0:01:20:000	361.4	0.0100	0.0	0.0002	0.2222	0.0001	0.1	2015-11-24 05:56:56
		15445	0:00:05:000	307.5	-0.0100	0.0	0.0000	0.0139	0.0000	0.0	2015-11-24 05:59:52
		15486	0:00:40:000	68.8	-0.0100	0.0	0.0001	0.1111	0.0000	0.0	2015-11-24 06:02:59
		15525	0:00:10:000	131.7	0.0100	0.0	0.0000	0.0278	0.0000	0.0	2015-11-24 06:05:56
		15566	0:00:45:000	281.4	0.0100	0.0	0.0001	0.1250	0.0000	0.0	2015-11-24 06:09:03
		15607	0:01:20:000	360.2	0.0100	0.0	0.0002	0.2222	0.0001	0.1	2015-11-24 06:12:10
		15647	0:00:10:000	246.1	-0.0100	0.0	0.0000	0.0278	0.0000	0.0	2015-11-24 06:15:10
		15688	0:00:50:000	19.5	-0.0100	0.0	0.0001	0.1389	0.0000	0.0	2015-11-24 06:18:22
		15727	0:00:10:000	119.3	0.0100	0.0	0.0000	0.0278	0.0000	0.0	2015-11-24 06:21:10
		15768	0:00:50:000	293.5	0.0100	0.0	0.0001	0.1389	0.0000	0.0	2015-11-24 06:24:23
		15809	0:01:25:000	375.4	0.0100	0.0	0.0002	0.2361	0.0001	0.1	2015-11-24 06:27:31
		15849	0:00:15:000	208.9	-0.0100	0.0	0.0000	0.0417	0.0000	0.0	2015-11-24 06:30:30
		15890	0:00:50:000	25.1	-0.0100	0.0	0.0001	0.1389	0.0000	0.0	2015-11-24 06:33:38
		15929	0:00:10:000	118.1	0.0100	0.0	0.0000	0.0278	0.0000	0.0	2015-11-24 06:36:26
		15970	0:00:45:000	279.3	0.0100	0.0	0.0001	0.1250	0.0000	0.0	2015-11-24 06:39:35
		16011	0:01:20:000	362.4	0.0100	0.0	0.0002	0.2222	0.0001	0.1	2015-11-24 06:42:41
		16051	0:00:05:000	310.0	-0.0100	0.0	0.0000	0.0139	0.0000	0.0	2015-11-24 06:45:38
		16092	0:00:40:000	66.9	-0.0100	0.0	0.0001	0.1111	0.0000	0.0	2015-11-24 06:48:47
		16131	0:00:00:000	81.2	0.0100	0.0	0.0000	0.0000	0.0000	0.0	2015-11-24 06:51:40
		16172	0:00:35:000	247.7	0.0100	0.0	0.0001	0.0972	0.0000	0.0	2015-11-24 06:54:44
		16213	0:01:10:000	343.8	0.0100	0.0	0.0002	0.1944	0.0000	0.0	2015-11-24 06:57:53
	987	CC_DChg	0:00:56:000	0.0002	0.1556	0.0000	0.0219	0.0	329.2	-4.9	0.0	0.0
		16294	0:00:30:000	125.2	-0.0100	0.0	0.0001	0.0833	0.0000	0.0	2015-11-24 07:04:00
496	0.0003	0.0002	0.2722	0.1528	56.12	0.0001	0.0000	117.8	0.0000	0.00	0.0002	0.1528	100.00	0:00:55	0.0000	0.0000	0.0000	0.0731	0.0218	29.78%
		16374	0:00:25:000	206.1	0.0100	0.0	0.0001	0.0694	0.0000	0.0	2015-11-24 07:09:56
		16415	0:01:00:000	315.9	0.0100	0.0	0.0002	0.1667	0.0000	0.0	2015-11-24 07:13:06
		16456	0:01:35:000	391.2	0.0100	0.0	0.0003	0.2639	0.0001	0.1	2015-11-24 07:16:15
		16496	0:00:25:000	145.7	-0.0100	0.0	0.0001	0.0694	0.0000	0.0	2015-11-24 07:19:18
502	0.0003	0.0002	0.2750	0.1500	54.55	0.0001	0.0000	151.5	0.0000	0.00	0.0002	0.1500	100.00	0:00:54	0.0000	0.0000	0.0000	0.0730	0.0219	30.02%
		16576	0:00:30:000	232.2	0.0100	0.0	0.0001	0.0833	0.0000	0.0	2015-11-24 07:25:25
		16617	0:01:10:000	340.4	0.0100	0.0	0.0002	0.1944	0.0000	0.0	2015-11-24 07:28:37
	1011	CC_DChg	0:00:55:000	0.0002	0.1528	0.0000	0.0213	0.0	308.4	-4.9	0.0	0.0
		16698	0:00:25:000	143.8	-0.0100	0.0	0.0001	0.0694	0.0000	0.0	2015-11-24 07:34:41
508	0.0003	0.0002	0.2778	0.1500	54.00	0.0001	0.0000	151.5	0.0000	0.00	0.0002	0.1500	100.00	0:00:54	0.0000	0.0000	0.0000	0.0740	0.0219	29.57%
		16778	0:00:25:000	207.4	0.0100	0.0	0.0001	0.0694	0.0000	0.0	2015-11-24 07:40:43
		16819	0:01:00:000	317.1	0.0100	0.0	0.0002	0.1667	0.0000	0.0	2015-11-24 07:43:52
		16860	0:01:40:000	398.6	0.0100	0.0	0.0003	0.2778	0.0001	0.1	2015-11-24 07:47:05
		16900	0:00:25:000	152.2	-0.0100	0.0	0.0001	0.0694	0.0000	0.0	2015-11-24 07:50:03
		16941	0:00:54:000	0.0	-0.0100	0.0	0.0002	0.1500	0.0000	0.0	2015-11-24 07:53:08
		16980	0:00:25:000	209.5	0.0100	0.0	0.0001	0.0694	0.0000	0.0	2015-11-24 07:56:06
		17021	0:01:00:000	314.9	0.0100	0.0	0.0002	0.1667	0.0000	0.0	2015-11-24 07:59:18
		17062	0:01:40:000	394.6	0.0100	0.0	0.0003	0.2778	0.0001	0.1	2015-11-24 08:02:31
		17102	0:00:20:000	175.1	-0.0100	0.0	0.0001	0.0556	0.0000	0.0	2015-11-24 08:05:28
		17143	0:00:56:000	-4.9	-0.0100	0.0	0.0002	0.1556	0.0000	0.0	2015-11-24 08:08:37
		17182	0:00:20:000	181.6	0.0100	0.0	0.0001	0.0556	0.0000	0.0	2015-11-24 08:11:31
		17223	0:00:55:000	303.8	0.0100	0.0	0.0002	0.1528	0.0000	0.0	2015-11-24 08:14:41
		17264	0:01:30:000	381.3	0.0100	0.0	0.0003	0.2500	0.0001	0.1	2015-11-24 08:17:50
		17304	0:00:15:000	211.4	-0.0100	0.0	0.0000	0.0417	0.0000	0.0	2015-11-24 08:20:49
		17345	0:00:45:000	44.3	-0.0100	0.0	0.0001	0.1250	0.0000	0.0	2015-11-24 08:23:56
		17384	0:00:05:000	78.4	0.0100	0.0	0.0000	0.0139	0.0000	0.0	2015-11-24 08:26:48
		17425	0:00:40:000	260.4	0.0100	0.0	0.0001	0.1111	0.0000	0.0	2015-11-24 08:29:58
		17466	0:01:20:000	359.9	0.0100	0.0	0.0002	0.2222	0.0001	0.1	2015-11-24 08:33:11
		17506	0:00:05:000	307.5	-0.0100	0.0	0.0000	0.0139	0.0000	0.0	2015-11-24 08:36:10
		17547	0:00:35:000	98.5	-0.0100	0.0	0.0001	0.0972	0.0000	0.0	2015-11-24 08:39:16
		17586	0:00:00:000	81.2	0.0100	0.0	0.0000	0.0000	0.0000	0.0	2015-11-24 08:42:15
		17627	0:00:40:000	261.6	0.0100	0.0	0.0001	0.1111	0.0000	0.0	2015-11-24 08:45:24
		17668	0:01:15:000	347.8	0.0100	0.0	0.0002	0.2083	0.0000	0.0	2015-11-24 08:48:34
	1073	CC_DChg	0:00:55:000	0.0002	0.1528	0.0000	0.0219	0.0	308.7	-2.1	0.0	0.0
		17749	0:00:25:000	147.2	-0.0100	0.0	0.0001	0.0694	0.0000	0.0	2015-11-24 08:54:34
		17790	0:00:56:000	-2.4	-0.0100	0.0	0.0002	0.1556	0.0000	0.0	2015-11-24 08:57:39
		17829	0:00:15:000	152.2	0.0100	0.0	0.0000	0.0417	0.0000	0.0	2015-11-24 09:00:29
		17870	0:00:45:000	274.9	0.0100	0.0	0.0001	0.1250	0.0000	0.0	2015-11-24 09:03:35
		17911	0:01:15:000	349.0	0.0100	0.0	0.0002	0.2083	0.0000	0.0	2015-11-24 09:06:41
		17952	0:01:40:000	400.2	0.0100	0.0	0.0003	0.2778	0.0001	0.1	2015-11-24 09:09:42
		17992	0:00:20:000	184.4	-0.0100	0.0	0.0001	0.0556	0.0000	0.0	2015-11-24 09:12:39
		18033	0:00:50:000	20.4	-0.0100	0.0	0.0001	0.1389	0.0000	0.0	2015-11-24 09:15:46
		18072	0:00:10:000	127.1	0.0100	0.0	0.0000	0.0278	0.0000	0.0	2015-11-24 09:18:36
		18113	0:00:40:000	258.2	0.0100	0.0	0.0001	0.1111	0.0000	0.0	2015-11-24 09:21:44
		18154	0:01:10:000	336.3	0.0100	0.0	0.0002	0.1944	0.0000	0.0	2015-11-24 09:24:50
		18195	0:01:40:000	398.6	0.0100	0.0	0.0003	0.2778	0.0001	0.1	2015-11-24 09:27:56
		18235	0:00:15:000	212.0	-0.0100	0.0	0.0000	0.0417	0.0000	0.0	2015-11-24 09:30:49
		18276	0:00:45:000	48.3	-0.0100	0.0	0.0001	0.1250	0.0000	0.0	2015-11-24 09:33:54
		18315	0:00:00:000	79.6	0.0100	0.0	0.0000	0.0000	0.0000	0.0	2015-11-24 09:36:46
		18356	0:00:30:000	228.4	0.0100	0.0	0.0001	0.0833	0.0000	0.0	2015-11-24 09:39:47
		18397	0:01:00:000	314.9	0.0100	0.0	0.0002	0.1667	0.0000	0.0	2015-11-24 09:42:55
		18438	0:01:35:000	392.4	0.0100	0.0	0.0003	0.2639	0.0001	0.1	2015-11-24 09:46:05
		18478	0:00:15:000	220.4	-0.0100	0.0	0.0000	0.0417	0.0000	0.0	2015-11-24 09:49:00
		18519	0:00:50:000	26.3	-0.0100	0.0	0.0001	0.1389	0.0000	0.0	2015-11-24 09:52:09
		18558	0:00:05:000	80.2	0.0100	0.0	0.0000	0.0139	0.0000	0.0	2015-11-24 09:54:55
		18599	0:00:40:000	261.3	0.0100	0.0	0.0001	0.1111	0.0000	0.0	2015-11-24 09:58:05
		18640	0:01:15:000	349.7	0.0100	0.0	0.0002	0.2083	0.0000	0.0	2015-11-24 10:01:13
		18680	0:00:00:000	307.2	-0.0100	0.0	0.0000	0.0000	0.0000	0.0	2015-11-24 10:04:17
		18721	0:00:35:000	97.0	-0.0100	0.0	0.0001	0.0972	0.0000	0.0	2015-11-24 10:07:22
	1134	CC_Chg	0:01:39:000	0.0003	0.2750	0.0001	0.0733	0.0	82.4	401.1	0.0	0.0
		18801	0:00:30:000	228.7	0.0100	0.0	0.0001	0.0833	0.0000	0.0	2015-11-24 10:13:24
		18842	0:01:05:000	327.0	0.0100	0.0	0.0002	0.1806	0.0000	0.0	2015-11-24 10:16:34
		18883	0:01:40:000	398.6	0.0100	0.0	0.0003	0.2778	0.0001	0.1	2015-11-24 10:19:44
		18923	0:00:15:000	209.8	-0.0100	0.0	0.0000	0.0417	0.0000	0.0	2015-11-24 10:22:36
		18964	0:00:40:000	72.8	-0.0100	0.0	0.0001	0.1111	0.0000	0.0	2015-11-24 10:25:41
		19003	0:00:00:000	79.9	0.0100	0.0	0.0000	0.0000	0.0000	0.0	2015-11-24 10:28:38
		19044	0:00:35:000	245.5	0.0100	0.0	0.0001	0.0972	0.0000	0.0	2015-11-24 10:31:44
		19085	0:01:10:000	339.1	0.0100	0.0	0.0002	0.1944	0.0000	0.0	2015-11-24 10:34:54
		19126	0:01:42:000	401.7	0.0100	0.0	0.0003	0.2833	0.0001	0.1	2015-11-24 10:38:01
		19166	0:00:20:000	177.6	-0.0100	0.0	0.0001	0.0556	0.0000	0.0	2015-11-24 10:40:59
		19207	0:00:50:000	23.2	-0.0100	0.0	0.0001	0.1389	0.0000	0.0	2015-11-24 10:44:09
		19246	0:00:05:000	79.0	0.0100	0.0	0.0000	0.0139	0.0000	0.0	2015-11-24 10:46:59
		19287	0:00:35:000	242.4	0.0100	0.0	0.0001	0.0972	0.0000	0.0	2015-11-24 10:50:08
		19328	0:01:05:000	323.0	0.0100	0.0	0.0002	0.1806	0.0000	0.0	2015-11-24 10:53:18
		19369	0:01:35:000	388.1	0.0100	0.0	0.0003	0.2639	0.0001	0.1	2015-11-24 10:56:28
		19409	0:00:10:000	252.6	-0.0100	0.0	0.0000	0.0278	0.0000	0.0	2015-11-24 10:59:22
		19450	0:00:40:000	72.2	-0.0100	0.0	0.0001	0.1111	0.0000	0.0	2015-11-24 11:02:30
	1176	CC_Chg	0:01:42:000	0.0003	0.2833	0.0001	0.0762	0.0	79.0	402.0	0.0	0.0
		19530	0:00:25:000	203.0	0.0100	0.0	0.0001	0.0694	0.0000	0.0	2015-11-24 11:08:26
		19571	0:00:55:000	296.9	0.0100	0.0	0.0002	0.1528	0.0000	0.0	2015-11-24 11:11:35
		19612	0:01:25:000	363.0	0.0100	0.0	0.0002	0.2361	0.0001	0.1	2015-11-24 11:14:45
		19652	0:00:00:000	309.7	-0.0100	0.0	0.0000	0.0000	0.0000	0.0	2015-11-24 11:17:46
		19693	0:00:30:000	125.8	-0.0100	0.0	0.0001	0.0833	0.0000	0.0	2015-11-24 11:20:48
		19734	0:00:57:000	-4.0	-0.0100	0.0	0.0002	0.1583	0.0000	0.0	2015-11-24 11:23:53
		19773	0:00:15:000	159.3	0.0100	0.0	0.0000	0.0417	0.0000	0.0	2015-11-24 11:26:44
		19814	0:00:45:000	273.4	0.0100	0.0	0.0001	0.1250	0.0000	0.0	2015-11-24 11:29:50
		19855	0:01:15:000	345.0	0.0100	0.0	0.0002	0.2083	0.0000	0.0	2015-11-24 11:32:57
		19896	0:01:45:000	399.9	0.0100	0.0	0.0003	0.2917	0.0001	0.1	2015-11-24 11:36:05
		19936	0:00:15:000	217.0	-0.0100	0.0	0.0000	0.0417	0.0000	0.0	2015-11-24 11:38:58
		19977	0:00:50:000	22.3	-0.0100	0.0	0.0001	0.1389	0.0000	0.0	2015-11-24 11:42:13
		20016	0:00:05:000	66.0	0.0100	0.0	0.0000	0.0139	0.0000	0.0	2015-11-24 11:45:04
		20057	0:00:30:000	218.2	0.0100	0.0	0.0001	0.0833	0.0000	0.0	2015-11-24 11:48:12
		20098	0:01:00:000	305.0	0.0100	0.0	0.0002	0.1667	0.0000	0.0	2015-11-24 11:51:24
		20139	0:01:30:000	366.7	0.0100	0.0	0.0003	0.2500	0.0001	0.1	2015-11-24 11:54:37
	1215	CC_DChg	0:00:54:000	0.0002	0.1500	0.0000	0.0207	0.0	305.6	-4.9	0.0	0.0
		20220	0:00:25:000	147.2	-0.0100	0.0	0.0001	0.0694	0.0000	0.0	2015-11-24 12:00:47
		20261	0:00:54:000	-4.3	-0.0100	0.0	0.0002	0.1500	0.0000	0.0	2015-11-24 12:03:58
		20300	0:00:15:000	159.6	0.0100	0.0	0.0000	0.0417	0.0000	0.0	2015-11-24 12:06:56
		20341	0:00:45:000	266.6	0.0100	0.0	0.0001	0.1250	0.0000	0.0	2015-11-24 12:10:06
		20382	0:01:15:000	336.9	0.0100	0.0	0.0002	0.2083	0.0000	0.0	2015-11-24 12:13:16
		20423	0:01:45:000	398.0	0.0100	0.0	0.0003	0.2917	0.0001	0.1	2015-11-24 12:16:26
		20463	0:00:15:000	207.4	-0.0100	0.0	0.0000	0.0417	0.0000	0.0	2015-11-24 12:19:20
		20504	0:00:45:000	43.0	-0.0100	0.0	0.0001	0.1250	0.0000	0.0	2015-11-24 12:22:30
		20543	0:00:10:000	121.8	0.0100	0.0	0.0000	0.0278	0.0000	0.0	2015-11-24 12:25:27
		20584	0:00:45:000	273.1	0.0100	0.0	0.0001	0.1250	0.0000	0.0	2015-11-24 12:28:40
		20625	0:01:20:000	357.1	0.0100	0.0	0.0002	0.2222	0.0001	0.1	2015-11-24 12:31:52
	1243	CC_DChg	0:00:55:000	0.0002	0.1528	0.0000	0.0217	0.0	305.6	-1.2	0.0	0.0
		20706	0:00:25:000	152.2	-0.0100	0.0	0.0001	0.0694	0.0000	0.0	2015-11-24 12:37:55
		20747	0:00:55:000	5.5	-0.0100	0.0	0.0002	0.1528	0.0000	0.0	2015-11-24 12:41:03
		20786	0:00:05:000	84.6	0.0100	0.0	0.0000	0.0139	0.0000	0.0	2015-11-24 12:43:51
		20827	0:00:40:000	261.6	0.0100	0.0	0.0001	0.1111	0.0000	0.0	2015-11-24 12:47:01
		20868	0:01:10:000	337.6	0.0100	0.0	0.0002	0.1944	0.0000	0.0	2015-11-24 12:50:06
		20909	0:01:40:000	397.4	0.0100	0.0	0.0003	0.2778	0.0001	0.1	2015-11-24 12:53:11
		20949	0:00:15:000	221.3	-0.0100	0.0	0.0000	0.0417	0.0000	0.0	2015-11-24 12:56:05
		20990	0:00:45:000	54.2	-0.0100	0.0	0.0001	0.1250	0.0000	0.0	2015-11-24 12:59:15
		21029	0:00:00:000	83.7	0.0100	0.0	0.0000	0.0000	0.0000	0.0	2015-11-24 13:02:10
		21070	0:00:30:000	223.5	0.0100	0.0	0.0001	0.0833	0.0000	0.0	2015-11-24 13:05:12
		21111	0:01:00:000	309.0	0.0100	0.0	0.0002	0.1667	0.0000	0.0	2015-11-24 13:08:20
		21152	0:01:30:000	378.8	0.0100	0.0	0.0003	0.2500	0.0001	0.1	2015-11-24 13:11:30
		21192	0:00:05:000	304.7	-0.0100	0.0	0.0000	0.0139	0.0000	0.0	2015-11-24 13:14:26
		21233	0:00:35:000	98.5	-0.0100	0.0	0.0001	0.0972	0.0000	0.0	2015-11-24 13:17:35
639	0.0003	0.0002	0.2806	0.1556	55.45	0.0001	0.0000	126.4	0.0000	0.00	0.0002	0.1556	100.00	0:00:56	0.0000	0.0000	0.0000	0.0754	0.0220	29.17%
		21313	0:00:20:000	185.3	0.0100	0.0	0.0001	0.0556	0.0000	0.0	2015-11-24 13:23:33
		21354	0:00:50:000	289.2	0.0100	0.0	0.0001	0.1389	0.0000	0.0	2015-11-24 13:26:39
		21395	0:01:20:000	358.6	0.0100	0.0	0.0002	0.2222	0.0001	0.1	2015-11-24 13:29:46
	1287	CC_DChg	0:00:56:000	0.0002	0.1556	0.0000	0.0221	0.0	313.4	-2.4	0.0	0.0
		21476	0:00:25:000	152.2	-0.0100	0.0	0.0001	0.0694	0.0000	0.0	2015-11-24 13:35:46
		21517	0:00:55:000	11.7	-0.0100	0.0	0.0002	0.1528	0.0000	0.0	2015-11-24 13:38:53
		21556	0:00:10:000	119.9	0.0100	0.0	0.0000	0.0278	0.0000	0.0	2015-11-24 13:41:42
		21597	0:00:40:000	257.6	0.0100	0.0	0.0001	0.1111	0.0000	0.0	2015-11-24 13:44:51
		21638	0:01:10:000	336.9	0.0100	0.0	0.0002	0.1944	0.0000	0.0	2015-11-24 13:47:58
		21679	0:01:40:000	396.8	0.0100	0.0	0.0003	0.2778	0.0001	0.1	2015-11-24 13:51:06
		21719	0:00:15:000	215.1	-0.0100	0.0	0.0000	0.0417	0.0000	0.0	2015-11-24 13:54:00
		21760	0:00:50:000	26.6	-0.0100	0.0	0.0001	0.1389	0.0000	0.0	2015-11-24 13:57:11
		21799	0:00:05:000	78.7	0.0100	0.0	0.0000	0.0139	0.0000	0.0	2015-11-24 13:59:57
		21840	0:00:35:000	243.9	0.0100	0.0	0.0001	0.0972	0.0000	0.0	2015-11-24 14:03:05
		21881	0:01:05:000	325.8	0.0100	0.0	0.0002	0.1806	0.0000	0.0	2015-11-24 14:06:12
		21922	0:01:35:000	386.2	0.0100	0.0	0.0003	0.2639	0.0001	0.1	2015-11-24 14:09:21
		21962	0:00:10:000	264.7	-0.0100	0.0	0.0000	0.0278	0.0000	0.0	2015-11-24 14:12:15
		22003	0:00:45:000	49.6	-0.0100	0.0	0.0001	0.1250	0.0000	0.0	2015-11-24 14:15:25
		22042	0:00:05:000	80.2	0.0100	0.0	0.0000	0.0139	0.0000	0.0	2015-11-24 14:18:14
		22083	0:00:40:000	261.6	0.0100	0.0	0.0001	0.1111	0.0000	0.0	2015-11-24 14:21:23
		22124	0:01:15:000	350.6	0.0100	0.0	0.0002	0.2083	0.0000	0.0	2015-11-24 14:24:32
		22164	0:00:00:000	303.8	-0.0100	0.0	0.0000	0.0000	0.0000	0.0	2015-11-24 14:27:35
		22205	0:00:30:000	122.4	-0.0100	0.0	0.0001	0.0833	0.0000	0.0	2015-11-24 14:30:35
		22246	0:00:55:000	-0.3	-0.0100	0.0	0.0002	0.1528	0.0000	0.0	2015-11-24 14:33:37
		22285	0:00:25:000	209.2	0.0100	0.0	0.0001	0.0694	0.0000	0.0	2015-11-24 14:36:37
		22326	0:00:55:000	300.0	0.0100	0.0	0.0002	0.1528	0.0000	0.0	2015-11-24 14:39:43
		22367	0:01:25:000	370.7	0.0100	0.0	0.0002	0.2361	0.0001	0.1	2015-11-24 14:42:50
		22407	0:00:05:000	307.5	-0.0100	0.0	0.0000	0.0139	0.0000	0.0	2015-11-24 14:45:45
		22448	0:00:35:000	92.3	-0.0100	0.0	0.0001	0.0972	0.0000	0.0	2015-11-24 14:48:52
674	0.0003	0.0002	0.2833	0.1583	55.87	0.0001	0.0000	125.8	0.0000	0.00	0.0002	0.1583	100.00	0:00:57	0.0000	0.0000	0.0000	0.0759	0.0222	29.29%
		22528	0:00:20:000	178.8	0.0100	0.0	0.0001	0.0556	0.0000	0.0	2015-11-24 14:54:47
		22569	0:00:50:000	288.0	0.0100	0.0	0.0001	0.1389	0.0000	0.0	2015-11-24 14:57:55
		22610	0:01:20:000	359.0	0.0100	0.0	0.0002	0.2222	0.0001	0.1	2015-11-24 15:01:02
		22650	0:00:00:000	306.9	-0.0100	0.0	0.0000	0.0000	0.0000	0.0	2015-11-24 15:04:02
		22691	0:00:30:000	126.1	-0.0100	0.0	0.0001	0.0833	0.0000	0.0	2015-11-24 15:07:03
681	0.0003	0.0002	0.2750	0.1528	55.56	0.0001	0.0000	122.4	0.0000	0.00	0.0002	0.1528	100.00	0:00:55	0.0000	0.0000	0.0000	0.0729	0.0217	29.74%
		22771	0:00:25:000	202.7	0.0100	0.0	0.0001	0.0694	0.0000	0.0	2015-11-24 15:13:04
		22812	0:00:55:000	297.9	0.0100	0.0	0.0002	0.1528	0.0000	0.0	2015-11-24 15:16:10
		22853	0:01:25:000	370.4	0.0100	0.0	0.0002	0.2361	0.0001	0.1	2015-11-24 15:19:17
		22893	0:00:00:000	328.3	-0.0100	0.0	0.0000	0.0000	0.0000	0.0	2015-11-24 15:22:13
		22934	0:00:30:000	124.6	-0.0100	0.0	0.0001	0.0833	0.0000	0.0	2015-11-24 15:25:16
		22975	0:00:56:000	-3.7	-0.0100	0.0	0.0002	0.1556	0.0000	0.0	2015-11-24 15:28:18
		23014	0:00:15:000	151.2	0.0100	0.0	0.0000	0.0417	0.0000	0.0	2015-11-24 15:31:10
		23055	0:00:45:000	275.2	0.0100	0.0	0.0001	0.1250	0.0000	0.0	2015-11-24 15:34:16
		23096	0:01:15:000	346.6	0.0100	0.0	0.0002	0.2083	0.0000	0.0	2015-11-24 15:37:23
		23137	0:01:41:000	402.0	0.0100	0.0	0.0003	0.2806	0.0001	0.1	2015-11-24 15:40:25
		23177	0:00:20:000	182.2	-0.0100	0.0	0.0001	0.0556	0.0000	0.0	2015-11-24 15:43:22
		23218	0:00:50:000	22.6	-0.0100	0.0	0.0001	0.1389	0.0000	0.0	2015-11-24 15:46:29
		23257	0:00:05:000	84.9	0.0100	0.0	0.0000	0.0139	0.0000	0.0	2015-11-24 15:49:17
		23298	0:00:35:000	241.8	0.0100	0.0	0.0001	0.0972	0.0000	0.0	2015-11-24 15:52:25
		23339	0:01:05:000	322.7	0.0100	0.0	0.0002	0.1806	0.0000	0.0	2015-11-24 15:55:35
		23380	0:01:40:000	368.9	0.0100	0.0	0.0003	0.2778	0.0001	0.1	2015-11-24 15:58:46
		23421	0:01:56:000	400.5	0.0100	0.0	0.0003	0.3222	0.0001	0.1	2015-11-24 16:01:55
		23461	0:00:10:000	258.8	-0.0100	0.0	0.0000	0.0278	0.0000	0.0	2015-11-24 16:04:55
		23502	0:00:30:000	114.7	-0.0100	0.0	0.0001	0.0833	0.0000	0.0	2015-11-24 16:08:05
		23543	0:00:50:000	15.1	-0.0100	0.0	0.0001	0.1389	0.0000	0.0	2015-11-24 16:11:15
		23582	0:00:00:000	80.2	0.0100	0.0	0.0000	0.0000	0.0000	0.0	2015-11-24 16:14:11
		23623	0:00:20:000	173.9	0.0100	0.0	0.0001	0.0556	0.0000	0.0	2015-11-24 16:17:15
		23664	0:00:40:000	247.7	0.0100	0.0	0.0001	0.1111	0.0000	0.0	2015-11-24 16:20:24
		23705	0:01:00:000	301.3	0.0100	0.0	0.0002	0.1667	0.0000	0.0	2015-11-24 16:23:35
		23746	0:01:25:000	355.2	0.0100	0.0	0.0002	0.2361	0.0001	0.1	2015-11-24 16:26:43
		23787	0:01:50:000	401.7	0.0100	0.0	0.0003	0.3056	0.0001	0.1	2015-11-24 16:29:49
		23799	0:00:53:000	-2.7	-0.0100	0.0	0.0001	0.1472	0.0000	0.0	2015-11-24 16:30:42