File: data/CuNP.txt
Cycle ID	Cap_Chg(mAh)	Cap_DChg(mAh)	RCap_Chg(mAh/g)	RCap_DChg(mAh/g)	Efficiency(%)	Engy_Chg(mWh)	Engy_DChg(mWh)	Mid-value Voltage(V)	CC_Chg_Cap(mAh)	CC_Chg_Rat(%)	Platform_Cap(mAh)	Platform_RCap(mAh/g)	Platform_Efficiency(%)	Platform_Time	Capacitance_Chg(F)	Capacitance_DChg(F)	rd(mO)	REngy_Chg(mWh/g)	REngy_DChg(mWh/g)	Energy Efficiency(%)
	Step ID	Step Type	Step Time(H)	Cap(mAh)	CmpCap(mAh/g)	Energy(mWh)	CmpEng(mWh/g)	Capacitance_Chg(F)	Start Vol(V)	End Vol(V)	Start Temperature(?)	End Temperature(?)
		Record ID	Time(H)	Vol(V)	Cur(mA)	Temperature(?)	Cap(mAh)	CmpCap(mAh/g)	Energy(mWh)	CmpEng(mWh/g)	Realtime
1	0.0000	0.4796	0.0000	102.2511	0.00	0.0000	1.0300	2.2	0.0000	0.00	0.4796	102.2511	100.00	17:23:25	0.0000	0.0000	0.0000	0.0000	219.6209	0.00%
		24	0.0	2.6001	0.0000	0.0	0.0000	0.0000	0.0000	0.0	2016-03-11 10:56:17
		49	0.1	2.5973	0.0000	0.0	0.0000	0.0000	0.0000	0.0	2016-03-11 10:58:22
		74	0.1	2.5970	0.0000	0.0	0.0000	0.0000	0.0000	0.0	2016-03-11 11:00:27
		99	0.1	2.5979	0.0000	0.0	0.0000	0.0000	0.0000	0.0	2016-03-11 11:02:32
		124	0.2	2.6013	0.0000	0.0	0.0000	0.0000	0.0000	0.0	2016-03-11 11:04:37
		149	0.2	2.6035	0.0000	0.0	0.0000	0.0000	0.0000	0.0	2016-03-11 11:06:42
		174	0.2	2.6038	0.0000	0.0	0.0000	0.0000	0.0000	0.0	2016-03-11 11:08:47
		199	0.3	2.6069	0.0000	0.0	0.0000	0.0000	0.0000	0.0	2016-03-11 11:10:52
		224	0.3	2.6069	0.0000	0.0	0.0000	0.0000	0.0000	0.0	2016-03-11 11:12:57
		248	0.0	2.3558	-0.0221	0.0	0.0007	0.1440	0.0016	0.3	2016-03-11 11:14:56
		273	0.1	2.3778	-0.0221	0.0	0.0014	0.3076	0.0034	0.7	2016-03-11 11:17:01
		298	0.1	2.3821	-0.0221	0.0	0.0022	0.4712	0.0052	1.1	2016-03-11 11:19:06
		323	0.1	2.3766	-0.0221	0.0	0.0030	0.6348	0.0071	1.5	2016-03-11 11:21:11
		348	0.2	2.3732	-0.0221	0.0	0.0037	0.7984	0.0089	1.9	2016-03-11 11:23:16
		373	0.2	2.3713	-0.0221	0.0	0.0045	0.9621	0.0107	2.3	2016-03-11 11:25:21
		398	0.2	2.3670	-0.0221	0.0	0.0053	1.1257	0.0126	2.7	2016-03-11 11:27:26
		423	0.3	2.3763	-0.0221	0.0	0.0060	1.2893	0.0144	3.1	2016-03-11 11:29:31
		448	0.3	2.3905	-0.0221	0.0	0.0068	1.4529	0.0162	3.5	2016-03-11 11:31:36
		473	0.3	2.3874	-0.0221	0.0	0.0076	1.6165	0.0181	3.9	2016-03-11 11:33:41
		498	0.4	2.3911	-0.0221	0.0	0.0083	1.7801	0.0199	4.2	2016-03-11 11:35:46
		523	0.4	2.3980	-0.0221	0.0	0.0091	1.9438	0.0217	4.6	2016-03-11 11:37:51
		548	0.4	2.3933	-0.0221	0.0	0.0099	2.1074	0.0236	5.0	2016-03-11 11:39:56
		573	0.5	2.3980	-0.0221	0.0	0.0107	2.2710	0.0254	5.4	2016-03-11 11:42:01
		598	0.5	2.3967	-0.0221	0.0	0.0114	2.4346	0.0273	5.8	2016-03-11 11:44:06
		623	0.6	2.3924	-0.0221	0.0	0.0122	2.5982	0.0291	6.2	2016-03-11 11:46:11
		648	0.6	2.3952	-0.0221	0.0	0.0130	2.7618	0.0310	6.6	2016-03-11 11:48:16
		673	0.6	2.4100	-0.0221	0.0	0.0137	2.9255	0.0328	7.0	2016-03-11 11:50:21
		698	0.7	2.4141	-0.0221	0.0	0.0145	3.0891	0.0347	7.4	2016-03-11 11:52:26
		723	0.7	2.4131	-0.0221	0.0	0.0153	3.2527	0.0365	7.8	2016-03-11 11:54:31
		748	0.7	2.4131	-0.0221	0.0	0.0160	3.4163	0.0384	8.2	2016-03-11 11:56:36
		773	0.8	2.4119	-0.0221	0.0	0.0168	3.5799	0.0402	8.6	2016-03-11 11:58:41
		798	0.8	2.4150	-0.0221	0.0	0.0176	3.7435	0.0421	9.0	2016-03-11 12:00:46
		823	0.8	2.4125	-0.0221	0.0	0.0183	3.9072	0.0440	9.4	2016-03-11 12:02:51
		848	0.9	2.4141	-0.0221	0.0	0.0191	4.0708	0.0458	9.8	2016-03-11 12:04:56
		873	0.9	2.4156	-0.0221	0.0	0.0199	4.2344	0.0477	10.2	2016-03-11 12:07:01
		898	0.9	2.4147	-0.0221	0.0	0.0206	4.3980	0.0495	10.6	2016-03-11 12:09:06
		923	1.0	2.4159	-0.0221	0.0	0.0214	4.5616	0.0514	11.0	2016-03-11 12:11:11
		948	1.0	2.4141	-0.0221	0.0	0.0222	4.7252	0.0533	11.4	2016-03-11 12:13:16
		973	1.0	2.4135	-0.0221	0.0	0.0229	4.8889	0.0551	11.8	2016-03-11 12:15:21
		998	1.1	2.4135	-0.0221	0.0	0.0237	5.0525	0.0570	12.1	2016-03-11 12:17:26
		1023	1.1	2.4172	-0.0221	0.0	0.0245	5.2161	0.0588	12.5	2016-03-11 12:19:31
		1048	1.1	2.4190	-0.0221	0.0	0.0252	5.3797	0.0607	12.9	2016-03-11 12:21:36
		1073	1.2	2.4215	-0.0221	0.0	0.0260	5.5433	0.0626	13.3	2016-03-11 12:23:41
		1098	1.2	2.4246	-0.0221	0.0	0.0268	5.7069	0.0644	13.7	2016-03-11 12:25:46
		1123	1.2	2.4237	-0.0221	0.0	0.0275	5.8706	0.0663	14.1	2016-03-11 12:27:51
		1148	1.3	2.4234	-0.0221	0.0	0.0283	6.0342	0.0682	14.5	2016-03-11 12:29:56
		1173	1.3	2.4237	-0.0221	0.0	0.0291	6.1978	0.0700	14.9	2016-03-11 12:32:01
		1198	1.4	2.4178	-0.0221	0.0	0.0298	6.3614	0.0719	15.3	2016-03-11 12:34:06
		1223	1.4	2.4200	-0.0221	0.0	0.0306	6.5250	0.0737	15.7	2016-03-11 12:36:11
		1248	1.4	2.4197	-0.0221	0.0	0.0314	6.6886	0.0756	16.1	2016-03-11 12:38:16
		1273	1.5	2.4150	-0.0221	0.0	0.0321	6.8523	0.0775	16.5	2016-03-11 12:40:21
		1298	1.5	2.4169	-0.0221	0.0	0.0329	7.0159	0.0793	16.9	2016-03-11 12:42:26
		1323	1.5	2.4206	-0.0221	0.0	0.0337	7.1795	0.0812	17.3	2016-03-11 12:44:31
		1348	1.6	2.4175	-0.0221	0.0	0.0344	7.3431	0.0831	17.7	2016-03-11 12:46:36
		1373	1.6	2.4147	-0.0221	0.0	0.0352	7.5067	0.0849	18.1	2016-03-11 12:48:41
		1398	1.6	2.4131	-0.0221	0.0	0.0360	7.6703	0.0868	18.5	2016-03-11 12:50:46
		1423	1.7	2.4187	-0.0221	0.0	0.0367	7.8340	0.0886	18.9	2016-03-11 12:52:51
		1448	1.7	2.4159	-0.0221	0.0	0.0375	7.9976	0.0905	19.3	2016-03-11 12:54:56
		1473	1.7	2.4193	-0.0221	0.0	0.0383	8.1612	0.0924	19.7	2016-03-11 12:57:01
		1498	1.8	2.4249	-0.0221	0.0	0.0390	8.3248	0.0942	20.1	2016-03-11 12:59:06
		1523	1.8	2.4231	-0.0221	0.0	0.0398	8.4884	0.0961	20.5	2016-03-11 13:01:11
		1548	1.8	2.4231	-0.0221	0.0	0.0406	8.6520	0.0980	20.9	2016-03-11 13:03:16
		1573	1.9	2.4150	-0.0221	0.0	0.0413	8.8157	0.0998	21.3	2016-03-11 13:05:21
		1598	1.9	2.4138	-0.0221	0.0	0.0421	8.9793	0.1017	21.7	2016-03-11 13:07:26
		1623	1.9	2.4147	-0.0221	0.0	0.0429	9.1429	0.1035	22.1	2016-03-11 13:09:31
		1648	2.0	2.4119	-0.0221	0.0	0.0436	9.3065	0.1054	22.5	2016-03-11 13:11:36
		1673	2.0	2.4141	-0.0221	0.0	0.0444	9.4701	0.1073	22.9	2016-03-11 13:13:41
		1698	2.0	2.4172	-0.0221	0.0	0.0452	9.6337	0.1091	23.3	2016-03-11 13:15:46
		1723	2.1	2.4175	-0.0221	0.0	0.0459	9.7974	0.1110	23.7	2016-03-11 13:17:51
		1748	2.1	2.4147	-0.0221	0.0	0.0467	9.9610	0.1128	24.1	2016-03-11 13:19:56
		1773	2.1	2.4184	-0.0221	0.0	0.0475	10.1246	0.1147	24.5	2016-03-11 13:22:01
		1798	2.2	2.4172	-0.0221	0.0	0.0483	10.2882	0.1166	24.9	2016-03-11 13:24:06
		1823	2.2	2.4100	-0.0221	0.0	0.0490	10.4518	0.1184	25.2	2016-03-11 13:26:11
		1848	2.3	2.4122	-0.0221	0.0	0.0498	10.6154	0.1203	25.6	2016-03-11 13:28:16
		1873	2.3	2.4113	-0.0221	0.0	0.0506	10.7791	0.1221	26.0	2016-03-11 13:30:21
		1898	2.3	2.4131	-0.0221	0.0	0.0513	10.9427	0.1240	26.4	2016-03-11 13:32:26
		1923	2.4	2.4128	-0.0221	0.0	0.0521	11.1063	0.1258	26.8	2016-03-11 13:34:31
		1948	2.4	2.4045	-0.0221	0.0	0.0529	11.2699	0.1277	27.2	2016-03-11 13:36:36
		1973	2.4	2.4088	-0.0221	0.0	0.0536	11.4335	0.1296	27.6	2016-03-11 13:38:41
		1998	2.5	2.4038	-0.0221	0.0	0.0544	11.5971	0.1314	28.0	2016-03-11 13:40:46
		2023	2.5	2.4004	-0.0221	0.0	0.0552	11.7607	0.1333	28.4	2016-03-11 13:42:51
		2048	2.5	2.4035	-0.0221	0.0	0.0559	11.9244	0.1351	28.8	2016-03-11 13:44:56
		2073	2.6	2.4042	-0.0221	0.0	0.0567	12.0880	0.1370	29.2	2016-03-11 13:47:01
		2098	2.6	2.4011	-0.0221	0.0	0.0575	12.2516	0.1388	29.6	2016-03-11 13:49:06
		2123	2.6	2.4004	-0.0221	0.0	0.0582	12.4152	0.1407	30.0	2016-03-11 13:51:11
		2148	2.7	2.3973	-0.0221	0.0	0.0590	12.5788	0.1425	30.4	2016-03-11 13:53:16
		2173	2.7	2.3961	-0.0221	0.0	0.0598	12.7424	0.1443	30.8	2016-03-11 13:55:21
		2198	2.7	2.3955	-0.0221	0.0	0.0605	12.9061	0.1462	31.2	2016-03-11 13:57:26
		2223	2.8	2.3955	-0.0221	0.0	0.0613	13.0697	0.1480	31.6	2016-03-11 13:59:31
		2248	2.8	2.4004	-0.0221	0.0	0.0621	13.2333	0.1499	32.0	2016-03-11 14:01:36
		2273	2.8	2.3980	-0.0221	0.0	0.0628	13.3969	0.1517	32.4	2016-03-11 14:03:41
		2298	2.9	2.4054	-0.0221	0.0	0.0636	13.5605	0.1536	32.7	2016-03-11 14:05:46
		2323	2.9	2.4020	-0.0221	0.0	0.0644	13.7241	0.1554	33.1	2016-03-11 14:07:51
		2348	2.9	2.4011	-0.0221	0.0	0.0651	13.8878	0.1573	33.5	2016-03-11 14:09:56
		2373	3.0	2.4007	-0.0221	0.0	0.0659	14.0514	0.1591	33.9	2016-03-11 14:12:01
		2398	3.0	2.3992	-0.0221	0.0	0.0667	14.2150	0.1610	34.3	2016-03-11 14:14:06
		2423	3.1	2.3992	-0.0221	0.0	0.0674	14.3786	0.1628	34.7	2016-03-11 14:16:11
		2448	3.1	2.3967	-0.0221	0.0	0.0682	14.5422	0.1647	35.1	2016-03-11 14:18:16
		2473	3.1	2.3967	-0.0221	0.0	0.0690	14.7058	0.1665	35.5	2016-03-11 14:20:21
		2498	3.2	2.3927	-0.0221	0.0	0.0697	14.8695	0.1684	35.9	2016-03-11 14:22:26
		2523	3.2	2.3980	-0.0221	0.0	0.0705	15.0331	0.1702	36.3	2016-03-11 14:24:31
		2548	3.2	2.3955	-0.0221	0.0	0.0713	15.1967	0.1721	36.7	2016-03-11 14:26:36
		2573	3.3	2.3942	-0.0221	0.0	0.0720	15.3603	0.1739	37.1	2016-03-11 14:28:41
		2598	3.3	2.3905	-0.0221	0.0	0.0728	15.5239	0.1757	37.5	2016-03-11 14:30:46
		2623	3.3	2.3961	-0.0221	0.0	0.0736	15.6875	0.1776	37.9	2016-03-11 14:32:51
		2648	3.4	2.3992	-0.0221	0.0	0.0743	15.8512	0.1794	38.3	2016-03-11 14:34:56
		2673	3.4	2.3955	-0.0221	0.0	0.0751	16.0148	0.1813	38.7	2016-03-11 14:37:01
		2698	3.4	2.3961	-0.0221	0.0	0.0759	16.1784	0.1831	39.0	2016-03-11 14:39:06
		2723	3.5	2.3955	-0.0221	0.0	0.0766	16.3420	0.1850	39.4	2016-03-11 14:41:11
		2748	3.5	2.3933	-0.0221	0.0	0.0774	16.5056	0.1868	39.8	2016-03-11 14:43:16
		2773	3.5	2.3918	-0.0221	0.0	0.0782	16.6692	0.1887	40.2	2016-03-11 14:45:21
		2798	3.6	2.3893	-0.0221	0.0	0.0789	16.8329	0.1905	40.6	2016-03-11 14:47:26
		2823	3.6	2.3865	-0.0221	0.0	0.0797	16.9965	0.1923	41.0	2016-03-11 14:49:31
		2848	3.6	2.3871	-0.0221	0.0	0.0805	17.1601	0.1942	41.4	2016-03-11 14:51:36
		2873	3.7	2.3905	-0.0221	0.0	0.0812	17.3237	0.1960	41.8	2016-03-11 14:53:41
		2898	3.7	2.3868	-0.0221	0.0	0.0820	17.4873	0.1979	42.2	2016-03-11 14:55:46
		2923	3.7	2.3880	-0.0221	0.0	0.0828	17.6509	0.1997	42.6	2016-03-11 14:57:51
		2948	3.8	2.3896	-0.0221	0.0	0.0836	17.8146	0.2015	43.0	2016-03-11 14:59:56
		2973	3.8	2.3896	-0.0221	0.0	0.0843	17.9782	0.2034	43.4	2016-03-11 15:02:01
		2998	3.9	2.3890	-0.0221	0.0	0.0851	18.1418	0.2052	43.8	2016-03-11 15:04:06
		3023	3.9	2.3871	-0.0221	0.0	0.0859	18.3054	0.2070	44.1	2016-03-11 15:06:11
		3048	3.9	2.3859	-0.0221	0.0	0.0866	18.4690	0.2089	44.5	2016-03-11 15:08:16
		3073	4.0	2.3843	-0.0221	0.0	0.0874	18.6326	0.2107	44.9	2016-03-11 15:10:21
		3098	4.0	2.3846	-0.0221	0.0	0.0882	18.7963	0.2126	45.3	2016-03-11 15:12:26
		3123	4.0	2.3837	-0.0221	0.0	0.0889	18.9599	0.2144	45.7	2016-03-11 15:14:31
		3148	4.1	2.3831	-0.0221	0.0	0.0897	19.1235	0.2162	46.1	2016-03-11 15:16:36
		3173	4.1	2.3865	-0.0221	0.0	0.0905	19.2871	0.2181	46.5	2016-03-11 15:18:41
		3198	4.1	2.3880	-0.0221	0.0	0.0912	19.4507	0.2199	46.9	2016-03-11 15:20:46
		3223	4.2	2.3896	-0.0221	0.0	0.0920	19.6143	0.2217	47.3	2016-03-11 15:22:51
		3248	4.2	2.3871	-0.0221	0.0	0.0928	19.7780	0.2236	47.7	2016-03-11 15:24:56
		3273	4.2	2.3877	-0.0221	0.0	0.0935	19.9416	0.2254	48.1	2016-03-11 15:27:01
		3298	4.3	2.3877	-0.0221	0.0	0.0943	20.1052	0.2273	48.5	2016-03-11 15:29:06
		3323	4.3	2.3856	-0.0221	0.0	0.0951	20.2688	0.2291	48.8	2016-03-11 15:31:11
		3348	4.3	2.3843	-0.0221	0.0	0.0958	20.4324	0.2309	49.2	2016-03-11 15:33:16
		3373	4.4	2.3806	-0.0221	0.0	0.0966	20.5960	0.2328	49.6	2016-03-11 15:35:21
		3398	4.4	2.3781	-0.0221	0.0	0.0974	20.7597	0.2346	50.0	2016-03-11 15:37:26
		3423	4.4	2.3825	-0.0221	0.0	0.0981	20.9233	0.2364	50.4	2016-03-11 15:39:31
		3448	4.5	2.3821	-0.0221	0.0	0.0989	21.0869	0.2383	50.8	2016-03-11 15:41:36
		3473	4.5	2.3821	-0.0221	0.0	0.0997	21.2505	0.2401	51.2	2016-03-11 15:43:41
		3498	4.5	2.3797	-0.0221	0.0	0.1004	21.4141	0.2419	51.6	2016-03-11 15:45:46
		3523	4.6	2.3794	-0.0221	0.0	0.1012	21.5777	0.2438	52.0	2016-03-11 15:47:51
		3548	4.6	2.3818	-0.0221	0.0	0.1020	21.7414	0.2456	52.4	2016-03-11 15:49:56
		3573	4.6	2.3806	-0.0221	0.0	0.1027	21.9050	0.2474	52.8	2016-03-11 15:52:01
		3598	4.7	2.3790	-0.0221	0.0	0.1035	22.0686	0.2493	53.1	2016-03-11 15:54:06
		3623	4.7	2.3775	-0.0221	0.0	0.1043	22.2322	0.2511	53.5	2016-03-11 15:56:11
		3648	4.8	2.3784	-0.0221	0.0	0.1050	22.3958	0.2529	53.9	2016-03-11 15:58:16
		3673	4.8	2.3763	-0.0221	0.0	0.1058	22.5594	0.2548	54.3	2016-03-11 16:00:21
		3698	4.8	2.3747	-0.0221	0.0	0.1066	22.7231	0.2566	54.7	2016-03-11 16:02:26
		3723	4.9	2.3753	-0.0221	0.0	0.1073	22.8867	0.2584	55.1	2016-03-11 16:04:31
		3748	4.9	2.3732	-0.0221	0.0	0.1081	23.0503	0.2602	55.5	2016-03-11 16:06:36
		3773	4.9	2.3778	-0.0221	0.0	0.1089	23.2139	0.2621	55.9	2016-03-11 16:08:41
		3798	5.0	2.3781	-0.0221	0.0	0.1096	23.3775	0.2639	56.3	2016-03-11 16:10:46
		3823	5.0	2.3728	-0.0221	0.0	0.1104	23.5411	0.2657	56.7	2016-03-11 16:12:52
		3848	5.0	2.3741	-0.0221	0.0	0.1112	23.7047	0.2676	57.0	2016-03-11 16:14:57
		3873	5.1	2.3741	-0.0221	0.0	0.1119	23.8684	0.2694	57.4	2016-03-11 16:17:02
		3898	5.1	2.3691	-0.0221	0.0	0.1127	24.0320	0.2712	57.8	2016-03-11 16:19:07
		3923	5.1	2.3716	-0.0221	0.0	0.1135	24.1956	0.2730	58.2	2016-03-11 16:21:12
		3948	5.2	2.3697	-0.0221	0.0	0.1142	24.3592	0.2749	58.6	2016-03-11 16:23:17
		3973	5.2	2.3688	-0.0221	0.0	0.1150	24.5228	0.2767	59.0	2016-03-11 16:25:22
		3998	5.2	2.3716	-0.0221	0.0	0.1158	24.6864	0.2785	59.4	2016-03-11 16:27:27
		4023	5.3	2.3691	-0.0221	0.0	0.1165	24.8501	0.2803	59.8	2016-03-11 16:29:32
		4048	5.3	2.3710	-0.0221	0.0	0.1173	25.0137	0.2822	60.2	2016-03-11 16:31:37
		4073	5.3	2.3691	-0.0221	0.0	0.1181	25.1773	0.2840	60.6	2016-03-11 16:33:42
		4098	5.4	2.3697	-0.0221	0.0	0.1188	25.3409	0.2858	60.9	2016-03-11 16:35:47
		4123	5.4	2.3685	-0.0221	0.0	0.1196	25.5045	0.2876	61.3	2016-03-11 16:37:52
		4148	5.4	2.3673	-0.0221	0.0	0.1204	25.6681	0.2895	61.7	2016-03-11 16:39:57
		4173	5.5	2.3691	-0.0221	0.0	0.1212	25.8318	0.2913	62.1	2016-03-11 16:42:02
		4198	5.5	2.3183	-0.0301	0.0	0.1222	26.0503	0.2937	62.6	2016-03-11 16:44:07
		4223	5.6	2.3248	-0.0301	0.0	0.1232	26.2732	0.2961	63.1	2016-03-11 16:46:12
		4248	5.6	2.3257	-0.0301	0.0	0.1243	26.4960	0.2985	63.7	2016-03-11 16:48:17
		4273	5.6	2.3310	-0.0301	0.0	0.1253	26.7188	0.3010	64.2	2016-03-11 16:50:22
		4298	5.7	2.3347	-0.0301	0.0	0.1264	26.9417	0.3034	64.7	2016-03-11 16:52:27
		4323	5.7	2.3310	-0.0301	0.0	0.1274	27.1645	0.3058	65.2	2016-03-11 16:54:32
		4348	5.7	2.3301	-0.0301	0.0	0.1284	27.3873	0.3083	65.7	2016-03-11 16:56:37
		4373	5.8	2.3335	-0.0301	0.0	0.1295	27.6102	0.3107	66.3	2016-03-11 16:58:42
		4398	5.8	2.3353	-0.0301	0.0	0.1305	27.8330	0.3132	66.8	2016-03-11 17:00:47
		4423	5.8	2.3363	-0.0301	0.0	0.1316	28.0558	0.3156	67.3	2016-03-11 17:02:52
		4448	5.9	2.3353	-0.0301	0.0	0.1326	28.2786	0.3180	67.8	2016-03-11 17:04:57
		4473	5.9	2.3347	-0.0301	0.0	0.1337	28.5015	0.3205	68.3	2016-03-11 17:07:02
		4498	5.9	2.3344	-0.0301	0.0	0.1347	28.7243	0.3229	68.9	2016-03-11 17:09:07
		4523	6.0	2.3335	-0.0301	0.0	0.1358	28.9472	0.3254	69.4	2016-03-11 17:11:12
		4548	6.0	2.3338	-0.0301	0.0	0.1368	29.1700	0.3278	69.9	2016-03-11 17:13:17
		4573	6.0	2.3363	-0.0301	0.0	0.1379	29.3928	0.3303	70.4	2016-03-11 17:15:22
		4598	6.1	2.3341	-0.0301	0.0	0.1389	29.6156	0.3327	70.9	2016-03-11 17:17:27
		4623	6.1	2.3328	-0.0301	0.0	0.1399	29.8385	0.3351	71.5	2016-03-11 17:19:32
		4648	6.1	2.3328	-0.0301	0.0	0.1410	30.0613	0.3376	72.0	2016-03-11 17:21:37
		4673	6.2	2.3347	-0.0301	0.0	0.1420	30.2841	0.3400	72.5	2016-03-11 17:23:42
		4698	6.2	2.3313	-0.0301	0.0	0.1431	30.5069	0.3424	73.0	2016-03-11 17:25:47
		4723	6.2	2.3294	-0.0301	0.0	0.1441	30.7297	0.3449	73.5	2016-03-11 17:27:52
		4748	6.3	2.3325	-0.0301	0.0	0.1452	30.9526	0.3473	74.1	2016-03-11 17:29:57
		4773	6.3	2.3319	-0.0301	0.0	0.1462	31.1754	0.3498	74.6	2016-03-11 17:32:02
		4798	6.3	2.3282	-0.0301	0.0	0.1473	31.3982	0.3522	75.1	2016-03-11 17:34:07
		4823	6.4	2.3270	-0.0301	0.0	0.1483	31.6210	0.3546	75.6	2016-03-11 17:36:12
		4848	6.4	2.3288	-0.0301	0.0	0.1493	31.8438	0.3571	76.1	2016-03-11 17:38:17
		4873	6.5	2.3291	-0.0301	0.0	0.1504	32.0667	0.3595	76.7	2016-03-11 17:40:22
		4898	6.5	2.3257	-0.0301	0.0	0.1514	32.2894	0.3619	77.2	2016-03-11 17:42:27
		4923	6.5	2.3251	-0.0301	0.0	0.1525	32.5123	0.3644	77.7	2016-03-11 17:44:32
		4948	6.6	2.3220	-0.0301	0.0	0.1535	32.7351	0.3668	78.2	2016-03-11 17:46:37
		4973	6.6	2.3214	-0.0301	0.0	0.1546	32.9579	0.3692	78.7	2016-03-11 17:48:42
		4998	6.6	2.3177	-0.0301	0.0	0.1556	33.1808	0.3716	79.2	2016-03-11 17:50:47
		5023	6.7	2.3173	-0.0301	0.0	0.1567	33.4036	0.3741	79.8	2016-03-11 17:52:52
		5048	6.7	2.3177	-0.0301	0.0	0.1577	33.6264	0.3765	80.3	2016-03-11 17:54:57
		5073	6.7	2.3155	-0.0301	0.0	0.1588	33.8492	0.3789	80.8	2016-03-11 17:57:02
		5098	6.8	2.3139	-0.0301	0.0	0.1598	34.0719	0.3813	81.3	2016-03-11 17:59:07
		5123	6.8	2.3102	-0.0301	0.0	0.1608	34.2947	0.3838	81.8	2016-03-11 18:01:12
		5148	6.8	2.3093	-0.0301	0.0	0.1619	34.5175	0.3862	82.3	2016-03-11 18:03:17
		5173	6.9	2.3062	-0.0301	0.0	0.1629	34.7404	0.3886	82.9	2016-03-11 18:05:22
		5198	6.9	2.3037	-0.0301	0.0	0.1640	34.9632	0.3910	83.4	2016-03-11 18:07:27
		5223	6.9	2.3009	-0.0301	0.0	0.1650	35.1860	0.3934	83.9	2016-03-11 18:09:32
		5248	7.0	2.2987	-0.0301	0.0	0.1661	35.4089	0.3958	84.4	2016-03-11 18:11:37
		5273	7.0	2.2984	-0.0301	0.0	0.1671	35.6317	0.3982	84.9	2016-03-11 18:13:42
		5298	7.0	2.2941	-0.0301	0.0	0.1682	35.8545	0.4006	85.4	2016-03-11 18:15:47
		5323	7.1	2.2891	-0.0301	0.0	0.1692	36.0774	0.4030	85.9	2016-03-11 18:17:52
		5348	7.1	2.2898	-0.0301	0.0	0.1702	36.3002	0.4054	86.4	2016-03-11 18:19:57
		5373	7.1	2.2863	-0.0301	0.0	0.1713	36.5230	0.4078	86.9	2016-03-11 18:22:02
		5398	7.2	2.2860	-0.0301	0.0	0.1723	36.7459	0.4102	87.5	2016-03-11 18:24:07
		5423	7.2	2.2832	-0.0301	0.0	0.1734	36.9687	0.4126	88.0	2016-03-11 18:26:12
		5448	7.3	2.2811	-0.0301	0.0	0.1744	37.1915	0.4150	88.5	2016-03-11 18:28:17
		5473	7.3	2.2786	-0.0301	0.0	0.1755	37.4144	0.4173	89.0	2016-03-11 18:30:22
		5498	7.3	2.2770	-0.0301	0.0	0.1765	37.6372	0.4197	89.5	2016-03-11 18:32:27
		5523	7.4	2.2736	-0.0301	0.0	0.1776	37.8600	0.4221	90.0	2016-03-11 18:34:32
		5548	7.4	2.2727	-0.0301	0.0	0.1786	38.0828	0.4245	90.5	2016-03-11 18:36:37
		5573	7.4	2.2705	-0.0301	0.0	0.1797	38.3057	0.4269	91.0	2016-03-11 18:38:42
		5598	7.5	2.2674	-0.0301	0.0	0.1807	38.5285	0.4292	91.5	2016-03-11 18:40:47
		5623	7.5	2.2646	-0.0301	0.0	0.1817	38.7513	0.4316	92.0	2016-03-11 18:42:52
		5648	7.5	2.2634	-0.0301	0.0	0.1828	38.9742	0.4340	92.5	2016-03-11 18:44:57
		5673	7.6	2.2609	-0.0301	0.0	0.1838	39.1970	0.4363	93.0	2016-03-11 18:47:02
		5698	7.6	2.2597	-0.0301	0.0	0.1849	39.4198	0.4387	93.5	2016-03-11 18:49:07
		5723	7.6	2.2550	-0.0301	0.0	0.1859	39.6427	0.4410	94.0	2016-03-11 18:51:12
		5748	7.7	2.2513	-0.0301	0.0	0.1870	39.8655	0.4434	94.5	2016-03-11 18:53:17
		5773	7.7	2.2485	-0.0301	0.0	0.1880	40.0883	0.4458	95.0	2016-03-11 18:55:22
		5798	7.7	2.2482	-0.0301	0.0	0.1891	40.3112	0.4481	95.5	2016-03-11 18:57:27
		5823	7.8	2.2451	-0.0301	0.0	0.1901	40.5340	0.4505	96.0	2016-03-11 18:59:32
		5848	7.8	2.2414	-0.0301	0.0	0.1911	40.7568	0.4528	96.5	2016-03-11 19:01:37
		5873	7.8	2.2380	-0.0301	0.0	0.1922	40.9797	0.4551	97.0	2016-03-11 19:03:42
		5898	7.9	2.2361	-0.0301	0.0	0.1932	41.2025	0.4575	97.5	2016-03-11 19:05:47
		5923	7.9	2.2346	-0.0301	0.0	0.1943	41.4253	0.4598	98.0	2016-03-11 19:07:52
		5948	7.9	2.2327	-0.0301	0.0	0.1953	41.6481	0.4622	98.5	2016-03-11 19:09:57
		5973	8.0	2.2315	-0.0301	0.0	0.1964	41.8709	0.4645	99.0	2016-03-11 19:12:02
		5998	8.0	2.2305	-0.0301	0.0	0.1974	42.0938	0.4668	99.5	2016-03-11 19:14:07
		6023	8.1	2.2293	-0.0301	0.0	0.1985	42.3166	0.4691	100.0	2016-03-11 19:16:12
		6048	8.1	2.2265	-0.0301	0.0	0.1995	42.5394	0.4715	100.5	2016-03-11 19:18:17
		6073	8.1	2.2253	-0.0301	0.0	0.2006	42.7622	0.4738	101.0	2016-03-11 19:20:22
		6098	8.2	2.2247	-0.0301	0.0	0.2016	42.9851	0.4761	101.5	2016-03-11 19:22:27
		6123	8.2	2.2225	-0.0301	0.0	0.2026	43.2079	0.4785	102.0	2016-03-11 19:24:32
		6148	8.2	2.2209	-0.0301	0.0	0.2037	43.4307	0.4808	102.5	2016-03-11 19:26:37
		6173	8.3	2.2181	-0.0301	0.0	0.2047	43.6535	0.4831	103.0	2016-03-11 19:28:42
		6198	8.3	2.2175	-0.0301	0.0	0.2058	43.8763	0.4854	103.5	2016-03-11 19:30:47
		6223	8.3	2.2163	-0.0301	0.0	0.2068	44.0991	0.4877	104.0	2016-03-11 19:32:52
		6248	8.4	2.2119	-0.0301	0.0	0.2079	44.3219	0.4901	104.5	2016-03-11 19:34:57
		6273	8.4	2.2119	-0.0301	0.0	0.2089	44.5447	0.4924	105.0	2016-03-11 19:37:02
		6298	8.4	2.2126	-0.0301	0.0	0.2100	44.7675	0.4947	105.5	2016-03-11 19:39:07
		6323	8.5	2.2110	-0.0301	0.0	0.2110	44.9903	0.4970	106.0	2016-03-11 19:41:12
		6348	8.5	2.2116	-0.0301	0.0	0.2120	45.2132	0.4993	106.5	2016-03-11 19:43:17
		6373	8.5	2.2085	-0.0301	0.0	0.2131	45.4360	0.5016	107.0	2016-03-11 19:45:22
		6398	8.6	2.2092	-0.0301	0.0	0.2141	45.6588	0.5039	107.4	2016-03-11 19:47:27
		6423	8.6	2.2088	-0.0301	0.0	0.2152	45.8816	0.5062	107.9	2016-03-11 19:49:32
		6448	8.6	2.2051	-0.0301	0.0	0.2162	46.1044	0.5085	108.4	2016-03-11 19:51:37
		6473	8.7	2.2057	-0.0301	0.0	0.2173	46.3272	0.5108	108.9	2016-03-11 19:53:42
		6498	8.7	2.2048	-0.0301	0.0	0.2183	46.5501	0.5131	109.4	2016-03-11 19:55:47
		6523	8.7	2.2026	-0.0301	0.0	0.2194	46.7729	0.5155	109.9	2016-03-11 19:57:52
		6548	8.8	2.1999	-0.0301	0.0	0.2204	46.9957	0.5178	110.4	2016-03-11 19:59:57
		6573	8.8	2.1995	-0.0301	0.0	0.2215	47.2186	0.5201	110.9	2016-03-11 20:02:02
		6598	8.8	2.2002	-0.0301	0.0	0.2225	47.4414	0.5224	111.4	2016-03-11 20:04:07
		6623	8.9	2.1986	-0.0301	0.0	0.2235	47.6642	0.5247	111.9	2016-03-11 20:06:12
		6648	8.9	2.1961	-0.0301	0.0	0.2246	47.8871	0.5270	112.4	2016-03-11 20:08:17
		6673	9.0	2.1943	-0.0301	0.0	0.2256	48.1099	0.5292	112.8	2016-03-11 20:10:22
		6698	9.0	2.1930	-0.0301	0.0	0.2267	48.3327	0.5315	113.3	2016-03-11 20:12:27
		6723	9.0	2.1902	-0.0301	0.0	0.2277	48.5555	0.5338	113.8	2016-03-11 20:14:32
		6748	9.1	2.1890	-0.0301	0.0	0.2288	48.7783	0.5361	114.3	2016-03-11 20:16:37
		6773	9.1	2.1865	-0.0301	0.0	0.2298	49.0011	0.5384	114.8	2016-03-11 20:18:42
		6798	9.1	2.1856	-0.0301	0.0	0.2309	49.2240	0.5407	115.3	2016-03-11 20:20:47
		6823	9.2	2.1825	-0.0301	0.0	0.2319	49.4468	0.5430	115.8	2016-03-11 20:22:52
		6848	9.2	2.1812	-0.0301	0.0	0.2330	49.6696	0.5453	116.3	2016-03-11 20:24:57
		6873	9.2	2.1803	-0.0301	0.0	0.2340	49.8925	0.5475	116.7	2016-03-11 20:27:02
		6898	9.3	2.1778	-0.0301	0.0	0.2350	50.1153	0.5498	117.2	2016-03-11 20:29:07
		6923	9.3	2.1760	-0.0301	0.0	0.2361	50.3381	0.5521	117.7	2016-03-11 20:31:12
		6948	9.3	2.1744	-0.0301	0.0	0.2371	50.5610	0.5544	118.2	2016-03-11 20:33:17
		6973	9.4	2.1735	-0.0301	0.0	0.2382	50.7838	0.5566	118.7	2016-03-11 20:35:22
		6998	9.4	2.1707	-0.0301	0.0	0.2392	51.0066	0.5589	119.2	2016-03-11 20:37:27
		7023	9.4	2.1692	-0.0301	0.0	0.2403	51.2295	0.5612	119.7	2016-03-11 20:39:32
		7048	9.5	2.1682	-0.0301	0.0	0.2413	51.4523	0.5634	120.1	2016-03-11 20:41:37
		7073	9.5	2.1661	-0.0301	0.0	0.2424	51.6751	0.5657	120.6	2016-03-11 20:43:42
		7098	9.5	2.1642	-0.0300	0.0	0.2434	51.8980	0.5680	121.1	2016-03-11 20:45:47
		7123	9.6	2.1636	-0.0301	0.0	0.2444	52.1208	0.5702	121.6	2016-03-11 20:47:52
		7148	9.6	2.1611	-0.0301	0.0	0.2455	52.3436	0.5725	122.1	2016-03-11 20:49:57
		7173	9.6	2.1592	-0.0301	0.0	0.2465	52.5665	0.5748	122.5	2016-03-11 20:52:02
		7198	9.7	2.1577	-0.0301	0.0	0.2476	52.7893	0.5770	123.0	2016-03-11 20:54:07
		7223	9.7	2.1558	-0.0301	0.0	0.2486	53.0121	0.5793	123.5	2016-03-11 20:56:12
		7248	9.8	2.1543	-0.0301	0.0	0.2497	53.2350	0.5815	124.0	2016-03-11 20:58:17
		7273	9.8	2.1533	-0.0301	0.0	0.2507	53.4578	0.5838	124.5	2016-03-11 21:00:22
		7298	9.8	2.1521	-0.0301	0.0	0.2518	53.6806	0.5860	125.0	2016-03-11 21:02:27
		7323	9.9	2.1496	-0.0301	0.0	0.2528	53.9035	0.5883	125.4	2016-03-11 21:04:32
		7348	9.9	2.1481	-0.0301	0.0	0.2539	54.1263	0.5905	125.9	2016-03-11 21:06:37
		7373	9.9	2.1462	-0.0301	0.0	0.2549	54.3491	0.5928	126.4	2016-03-11 21:08:42
		7398	10.0	2.1456	-0.0301	0.0	0.2559	54.5720	0.5950	126.9	2016-03-11 21:10:47
		7423	10.0	2.1425	-0.0301	0.0	0.2570	54.7948	0.5972	127.3	2016-03-11 21:12:52
		7448	10.0	2.1403	-0.0301	0.0	0.2580	55.0176	0.5995	127.8	2016-03-11 21:14:57
		7473	10.1	2.1394	-0.0301	0.0	0.2591	55.2405	0.6017	128.3	2016-03-11 21:17:02
		7498	10.1	2.1378	-0.0301	0.0	0.2601	55.4633	0.6040	128.8	2016-03-11 21:19:07
		7523	10.1	2.1360	-0.0301	0.0	0.2612	55.6861	0.6062	129.3	2016-03-11 21:21:12
		7548	10.2	2.1332	-0.0301	0.0	0.2622	55.9090	0.6084	129.7	2016-03-11 21:23:17
		7573	10.2	2.1307	-0.0301	0.0	0.2633	56.1318	0.6107	130.2	2016-03-11 21:25:22
		7598	10.2	2.1282	-0.0301	0.0	0.2643	56.3546	0.6129	130.7	2016-03-11 21:27:27
		7623	10.3	2.1264	-0.0301	0.0	0.2653	56.5774	0.6151	131.2	2016-03-11 21:29:32
		7648	10.3	2.1233	-0.0301	0.0	0.2664	56.8003	0.6173	131.6	2016-03-11 21:31:37
		7673	10.3	2.1227	-0.0301	0.0	0.2674	57.0231	0.6195	132.1	2016-03-11 21:33:42
		7698	10.4	2.1217	-0.0301	0.0	0.2685	57.2459	0.6218	132.6	2016-03-11 21:35:47
		7723	10.4	2.1183	-0.0301	0.0	0.2695	57.4688	0.6240	133.0	2016-03-11 21:37:52
		7748	10.4	2.1165	-0.0301	0.0	0.2706	57.6916	0.6262	133.5	2016-03-11 21:39:57
		7773	10.5	2.1127	-0.0301	0.0	0.2716	57.9144	0.6284	134.0	2016-03-11 21:42:02
		7798	10.5	2.1096	-0.0301	0.0	0.2727	58.1372	0.6306	134.5	2016-03-11 21:44:07
		7823	10.6	2.1062	-0.0301	0.0	0.2737	58.3600	0.6328	134.9	2016-03-11 21:46:12
		7848	10.6	2.1037	-0.0301	0.0	0.2748	58.5829	0.6350	135.4	2016-03-11 21:48:17
		7873	10.6	2.1006	-0.0301	0.0	0.2758	58.8057	0.6372	135.9	2016-03-11 21:50:22
		7898	10.7	2.0988	-0.0301	0.0	0.2768	59.0285	0.6394	136.3	2016-03-11 21:52:27
		7923	10.7	2.0969	-0.0301	0.0	0.2779	59.2513	0.6416	136.8	2016-03-11 21:54:32
		7948	10.7	2.0944	-0.0301	0.0	0.2789	59.4742	0.6438	137.3	2016-03-11 21:56:37
		7973	10.8	2.0910	-0.0301	0.0	0.2800	59.6970	0.6460	137.7	2016-03-11 21:58:42
		7998	10.8	2.0886	-0.0301	0.0	0.2810	59.9199	0.6482	138.2	2016-03-11 22:00:47
		8023	10.8	2.0861	-0.0301	0.0	0.2821	60.1427	0.6503	138.7	2016-03-11 22:02:52
		8048	10.9	2.0830	-0.0301	0.0	0.2831	60.3655	0.6525	139.1	2016-03-11 22:04:57
		8073	10.9	2.0814	-0.0301	0.0	0.2842	60.5883	0.6547	139.6	2016-03-11 22:07:02
		8098	10.9	2.0796	-0.0301	0.0	0.2852	60.8112	0.6569	140.1	2016-03-11 22:09:07
		8123	11.0	2.0777	-0.0301	0.0	0.2862	61.0340	0.6590	140.5	2016-03-11 22:11:12
		8148	11.0	2.0749	-0.0301	0.0	0.2873	61.2568	0.6612	141.0	2016-03-11 22:13:17
		8173	11.0	2.0724	-0.0301	0.0	0.2883	61.4796	0.6634	141.4	2016-03-11 22:15:22
		8198	11.1	2.0696	-0.0301	0.0	0.2894	61.7024	0.6656	141.9	2016-03-11 22:17:27
		8223	11.1	2.0672	-0.0301	0.0	0.2904	61.9252	0.6677	142.4	2016-03-11 22:19:32
		8248	11.1	2.0659	-0.0301	0.0	0.2915	62.1480	0.6699	142.8	2016-03-11 22:21:37
		8273	11.2	2.0631	-0.0301	0.0	0.2925	62.3709	0.6720	143.3	2016-03-11 22:23:42
		8298	11.2	2.0600	-0.0301	0.0	0.2936	62.5937	0.6742	143.8	2016-03-11 22:25:47
		8323	11.2	2.0579	-0.0301	0.0	0.2946	62.8165	0.6763	144.2	2016-03-11 22:27:52
		8348	11.3	2.0563	-0.0301	0.0	0.2957	63.0393	0.6785	144.7	2016-03-11 22:29:57
		8373	11.3	2.0551	-0.0301	0.0	0.2967	63.2622	0.6806	145.1	2016-03-11 22:32:02
		8398	11.4	2.0520	-0.0301	0.0	0.2977	63.4850	0.6828	145.6	2016-03-11 22:34:07
		8423	11.4	2.0498	-0.0301	0.0	0.2988	63.7078	0.6849	146.0	2016-03-11 22:36:12
		8448	11.4	2.0476	-0.0301	0.0	0.2998	63.9307	0.6871	146.5	2016-03-11 22:38:17
		8473	11.5	2.0452	-0.0301	0.0	0.3009	64.1535	0.6892	147.0	2016-03-11 22:40:22
		8498	11.5	2.0427	-0.0301	0.0	0.3019	64.3763	0.6914	147.4	2016-03-11 22:42:27
		8523	11.5	2.0414	-0.0301	0.0	0.3030	64.5991	0.6935	147.9	2016-03-11 22:44:32
		8548	11.6	2.0396	-0.0301	0.0	0.3040	64.8220	0.6956	148.3	2016-03-11 22:46:37
		8573	11.6	2.0359	-0.0301	0.0	0.3051	65.0448	0.6977	148.8	2016-03-11 22:48:42
		8598	11.6	2.0334	-0.0301	0.0	0.3061	65.2676	0.6999	149.2	2016-03-11 22:50:47
		8623	11.7	2.0309	-0.0301	0.0	0.3072	65.4905	0.7020	149.7	2016-03-11 22:52:52
		8648	11.7	2.0290	-0.0301	0.0	0.3082	65.7133	0.7041	150.1	2016-03-11 22:54:57
		8673	11.7	2.0253	-0.0301	0.0	0.3092	65.9361	0.7062	150.6	2016-03-11 22:57:02
		8698	11.8	2.0241	-0.0301	0.0	0.3103	66.1590	0.7084	151.0	2016-03-11 22:59:07
		8723	11.8	2.0231	-0.0301	0.0	0.3113	66.3818	0.7105	151.5	2016-03-11 23:01:12
		8748	11.8	2.0194	-0.0301	0.0	0.3124	66.6046	0.7126	151.9	2016-03-11 23:03:17
		8773	11.9	2.0179	-0.0301	0.0	0.3134	66.8275	0.7147	152.4	2016-03-11 23:05:22
		8798	11.9	2.0163	-0.0301	0.0	0.3145	67.0503	0.7168	152.8	2016-03-11 23:07:27
		8823	11.9	2.0126	-0.0301	0.0	0.3155	67.2732	0.7189	153.3	2016-03-11 23:09:32
		8848	12.0	2.0117	-0.0301	0.0	0.3166	67.4960	0.7210	153.7	2016-03-11 23:11:37
		8873	12.0	2.0101	-0.0301	0.0	0.3176	67.7188	0.7231	154.2	2016-03-11 23:13:42
		8898	12.0	2.0086	-0.0301	0.0	0.3186	67.9416	0.7252	154.6	2016-03-11 23:15:47
		8923	12.1	2.0067	-0.0300	0.0	0.3197	68.1645	0.7273	155.1	2016-03-11 23:17:52
		8948	12.1	2.0036	-0.0301	0.0	0.3207	68.3873	0.7294	155.5	2016-03-11 23:19:57
		8973	12.1	2.0027	-0.0301	0.0	0.3218	68.6101	0.7315	156.0	2016-03-11 23:22:02
		8998	12.2	2.0011	-0.0301	0.0	0.3228	68.8329	0.7336	156.4	2016-03-11 23:24:07
		9023	12.2	1.9980	-0.0301	0.0	0.3239	69.0558	0.7357	156.9	2016-03-11 23:26:12
		9048	12.3	1.9962	-0.0301	0.0	0.3249	69.2786	0.7378	157.3	2016-03-11 23:28:17
		9073	12.3	1.9946	-0.0301	0.0	0.3260	69.5014	0.7399	157.8	2016-03-11 23:30:22
		9098	12.3	1.9921	-0.0301	0.0	0.3270	69.7242	0.7419	158.2	2016-03-11 23:32:27
		9123	12.4	1.9915	-0.0301	0.0	0.3281	69.9470	0.7440	158.6	2016-03-11 23:34:32
		9148	12.4	1.9906	-0.0301	0.0	0.3291	70.1699	0.7461	159.1	2016-03-11 23:36:37
		9173	12.4	1.9875	-0.0301	0.0	0.3301	70.3927	0.7482	159.5	2016-03-11 23:38:42
		9198	12.5	1.9859	-0.0301	0.0	0.3312	70.6155	0.7503	160.0	2016-03-11 23:40:47
		9223	12.5	1.9841	-0.0301	0.0	0.3322	70.8384	0.7523	160.4	2016-03-11 23:42:52
		9248	12.5	1.9816	-0.0301	0.0	0.3333	71.0612	0.7544	160.9	2016-03-11 23:44:57
		9273	12.6	1.9797	-0.0301	0.0	0.3343	71.2840	0.7565	161.3	2016-03-11 23:47:02
		9298	12.6	1.9769	-0.0301	0.0	0.3354	71.5069	0.7586	161.7	2016-03-11 23:49:07
		9323	12.6	1.9757	-0.0301	0.0	0.3364	71.7297	0.7606	162.2	2016-03-11 23:51:12
		9348	12.7	1.9720	-0.0301	0.0	0.3375	71.9525	0.7627	162.6	2016-03-11 23:53:17
		9373	12.7	1.9707	-0.0301	0.0	0.3385	72.1753	0.7647	163.1	2016-03-11 23:55:22
		9398	12.7	1.9698	-0.0301	0.0	0.3395	72.3981	0.7668	163.5	2016-03-11 23:57:27
		9423	12.8	1.9670	-0.0301	0.0	0.3406	72.6210	0.7689	163.9	2016-03-11 23:59:32
		9448	12.8	1.9661	-0.0301	0.0	0.3416	72.8438	0.7709	164.4	2016-03-12 00:01:37
		9473	12.8	1.9630	-0.0301	0.0	0.3427	73.0667	0.7730	164.8	2016-03-12 00:03:42
		9498	12.9	1.9614	-0.0301	0.0	0.3437	73.2895	0.7750	165.3	2016-03-12 00:05:47
		9523	12.9	1.9602	-0.0301	0.0	0.3448	73.5123	0.7771	165.7	2016-03-12 00:07:52
		9548	12.9	1.9577	-0.0301	0.0	0.3458	73.7352	0.7791	166.1	2016-03-12 00:09:57
		9573	13.0	1.9559	-0.0301	0.0	0.3469	73.9580	0.7812	166.6	2016-03-12 00:12:02
		9598	13.0	1.9543	-0.0301	0.0	0.3479	74.1808	0.7832	167.0	2016-03-12 00:14:07
		9623	13.1	1.9512	-0.0301	0.0	0.3490	74.4036	0.7853	167.4	2016-03-12 00:16:12
		9648	13.1	1.9497	-0.0301	0.0	0.3500	74.6265	0.7873	167.9	2016-03-12 00:18:17
		9673	13.1	1.9481	-0.0301	0.0	0.3510	74.8493	0.7893	168.3	2016-03-12 00:20:22
		9698	13.2	1.9453	-0.0301	0.0	0.3521	75.0721	0.7914	168.7	2016-03-12 00:22:27
		9723	13.2	1.9540	-0.0301	0.0	0.3531	75.2950	0.7934	169.2	2016-03-12 00:24:32
		9748	13.2	1.9494	-0.0301	0.0	0.3542	75.5178	0.7954	169.6	2016-03-12 00:26:37
		9773	13.3	1.9466	-0.0301	0.0	0.3552	75.7407	0.7975	170.0	2016-03-12 00:28:42
		9798	13.3	1.9435	-0.0301	0.0	0.3563	75.9635	0.7995	170.5	2016-03-12 00:30:47
		9823	13.3	1.9397	-0.0301	0.0	0.3573	76.1863	0.8015	170.9	2016-03-12 00:32:52
		9848	13.4	1.9385	-0.0301	0.0	0.3584	76.4092	0.8036	171.3	2016-03-12 00:34:57
		9873	13.4	1.9373	-0.0301	0.0	0.3594	76.6320	0.8056	171.8	2016-03-12 00:37:02
		9898	13.4	1.9373	-0.0301	0.0	0.3604	76.8548	0.8076	172.2	2016-03-12 00:39:07
		9923	13.5	1.9351	-0.0301	0.0	0.3615	77.0777	0.8096	172.6	2016-03-12 00:41:12
		9948	13.5	1.9342	-0.0301	0.0	0.3625	77.3005	0.8117	173.1	2016-03-12 00:43:17
		9973	13.5	1.9320	-0.0301	0.0	0.3636	77.5234	0.8137	173.5	2016-03-12 00:45:22
		9998	13.6	1.9301	-0.0301	0.0	0.3646	77.7462	0.8157	173.9	2016-03-12 00:47:27
		10023	13.6	1.9292	-0.0301	0.0	0.3657	77.9690	0.8177	174.4	2016-03-12 00:49:32
		10048	13.6	1.9270	-0.0301	0.0	0.3667	78.1919	0.8197	174.8	2016-03-12 00:51:37
		10073	13.7	1.9261	-0.0301	0.0	0.3678	78.4147	0.8218	175.2	2016-03-12 00:53:42
		10098	13.7	1.9252	-0.0301	0.0	0.3688	78.6375	0.8238	175.6	2016-03-12 00:55:47
		10123	13.7	1.9233	-0.0301	0.0	0.3699	78.8604	0.8258	176.1	2016-03-12 00:57:52
		10148	13.8	1.9230	-0.0301	0.0	0.3709	79.0832	0.8278	176.5	2016-03-12 00:59:57
		10173	13.8	1.9215	-0.0301	0.0	0.3719	79.3060	0.8298	176.9	2016-03-12 01:02:02
		10198	13.9	1.9239	-0.0301	0.0	0.3730	79.5289	0.8318	177.4	2016-03-12 01:04:07
		10223	13.9	1.9208	-0.0301	0.0	0.3740	79.7517	0.8338	177.8	2016-03-12 01:06:12
		10248	13.9	1.9202	-0.0301	0.0	0.3751	79.9745	0.8358	178.2	2016-03-12 01:08:17
		10273	14.0	1.9184	-0.0301	0.0	0.3761	80.1973	0.8378	178.6	2016-03-12 01:10:22
		10298	14.0	1.9168	-0.0301	0.0	0.3772	80.4202	0.8398	179.1	2016-03-12 01:12:27
		10323	14.0	1.9156	-0.0301	0.0	0.3782	80.6430	0.8418	179.5	2016-03-12 01:14:32
		10348	14.1	1.9131	-0.0301	0.0	0.3793	80.8659	0.8438	179.9	2016-03-12 01:16:37
		10373	14.1	1.9125	-0.0301	0.0	0.3803	81.0887	0.8458	180.3	2016-03-12 01:18:42
		10398	14.1	1.9112	-0.0301	0.0	0.3814	81.3115	0.8478	180.8	2016-03-12 01:20:47
		10423	14.2	1.9097	-0.0301	0.0	0.3824	81.5344	0.8498	181.2	2016-03-12 01:22:52
		10448	14.2	1.9087	-0.0301	0.0	0.3834	81.7572	0.8518	181.6	2016-03-12 01:24:57
		10473	14.2	1.9066	-0.0301	0.0	0.3845	81.9800	0.8538	182.1	2016-03-12 01:27:02
		10498	14.3	1.9056	-0.0301	0.0	0.3855	82.2029	0.8558	182.5	2016-03-12 01:29:07
		10523	14.3	1.9060	-0.0301	0.0	0.3866	82.4257	0.8578	182.9	2016-03-12 01:31:12
		10548	14.3	1.9084	-0.0301	0.0	0.3876	82.6486	0.8598	183.3	2016-03-12 01:33:17
		10573	14.4	1.9075	-0.0301	0.0	0.3887	82.8714	0.8618	183.8	2016-03-12 01:35:22
		10598	14.4	1.9050	-0.0301	0.0	0.3897	83.0942	0.8638	184.2	2016-03-12 01:37:27
		10623	14.4	1.9032	-0.0301	0.0	0.3908	83.3171	0.8658	184.6	2016-03-12 01:39:32
		10648	14.5	1.9013	-0.0301	0.0	0.3918	83.5399	0.8678	185.0	2016-03-12 01:41:37
		10673	14.5	1.8998	-0.0301	0.0	0.3928	83.7628	0.8698	185.4	2016-03-12 01:43:42
		10698	14.5	1.8991	-0.0301	0.0	0.3939	83.9856	0.8717	185.9	2016-03-12 01:45:47
		10723	14.6	1.8970	-0.0301	0.0	0.3949	84.2084	0.8737	186.3	2016-03-12 01:47:52
		10748	14.6	1.8963	-0.0301	0.0	0.3960	84.4312	0.8757	186.7	2016-03-12 01:49:57
		10773	14.6	1.8929	-0.0301	0.0	0.3970	84.6541	0.8777	187.1	2016-03-12 01:52:02
		10798	14.7	1.8917	-0.0301	0.0	0.3981	84.8769	0.8797	187.6	2016-03-12 01:54:07
		10823	14.7	1.8905	-0.0301	0.0	0.3991	85.0997	0.8816	188.0	2016-03-12 01:56:12
		10848	14.8	1.8886	-0.0301	0.0	0.4002	85.3225	0.8836	188.4	2016-03-12 01:58:17
		10873	14.8	1.8877	-0.0301	0.0	0.4012	85.5454	0.8856	188.8	2016-03-12 02:00:22
		10898	14.8	1.8870	-0.0301	0.0	0.4023	85.7682	0.8876	189.2	2016-03-12 02:02:27
		10923	14.9	1.8846	-0.0301	0.0	0.4033	85.9911	0.8895	189.7	2016-03-12 02:04:32
		10948	14.9	1.8905	-0.0301	0.0	0.4043	86.2139	0.8915	190.1	2016-03-12 02:06:37
		10973	14.9	1.8880	-0.0301	0.0	0.4054	86.4367	0.8935	190.5	2016-03-12 02:08:42
		10998	15.0	1.8867	-0.0301	0.0	0.4064	86.6596	0.8955	190.9	2016-03-12 02:10:47
		11023	15.0	1.8855	-0.0301	0.0	0.4075	86.8824	0.8974	191.4	2016-03-12 02:12:52
		11048	15.0	1.8827	-0.0301	0.0	0.4085	87.1053	0.8994	191.8	2016-03-12 02:14:57
		11073	15.1	1.8815	-0.0301	0.0	0.4096	87.3281	0.9014	192.2	2016-03-12 02:17:02
		11098	15.1	1.8793	-0.0301	0.0	0.4106	87.5510	0.9033	192.6	2016-03-12 02:19:07
		11123	15.1	1.8784	-0.0301	0.0	0.4117	87.7738	0.9053	193.0	2016-03-12 02:21:12
		11148	15.2	1.8746	-0.0301	0.0	0.4127	87.9966	0.9073	193.4	2016-03-12 02:23:17
		11173	15.2	1.8725	-0.0301	0.0	0.4137	88.2195	0.9092	193.9	2016-03-12 02:25:22
		11198	15.2	1.8715	-0.0301	0.0	0.4148	88.4423	0.9112	194.3	2016-03-12 02:27:27
		11223	15.3	1.8694	-0.0301	0.0	0.4158	88.6651	0.9131	194.7	2016-03-12 02:29:32
		11248	15.3	1.8666	-0.0301	0.0	0.4169	88.8880	0.9151	195.1	2016-03-12 02:31:37
		11273	15.3	1.8656	-0.0301	0.0	0.4179	89.1108	0.9170	195.5	2016-03-12 02:33:42
		11298	15.4	1.8644	-0.0301	0.0	0.4190	89.3337	0.9190	195.9	2016-03-12 02:35:47
		11323	15.4	1.8622	-0.0301	0.0	0.4200	89.5565	0.9209	196.4	2016-03-12 02:37:52
		11348	15.4	1.8619	-0.0301	0.0	0.4211	89.7793	0.9229	196.8	2016-03-12 02:39:57
		11373	15.5	1.8588	-0.0301	0.0	0.4221	90.0022	0.9248	197.2	2016-03-12 02:42:02
		11398	15.5	1.8582	-0.0301	0.0	0.4232	90.2250	0.9268	197.6	2016-03-12 02:44:07
		11423	15.6	1.8570	-0.0301	0.0	0.4242	90.4478	0.9287	198.0	2016-03-12 02:46:12
		11448	15.6	1.8542	-0.0301	0.0	0.4252	90.6707	0.9306	198.4	2016-03-12 02:48:17
		11473	15.6	1.8536	-0.0301	0.0	0.4263	90.8935	0.9326	198.8	2016-03-12 02:50:22
		11498	15.7	1.8598	-0.0301	0.0	0.4273	91.1164	0.9345	199.3	2016-03-12 02:52:27
		11523	15.7	1.8585	-0.0301	0.0	0.4284	91.3392	0.9365	199.7	2016-03-12 02:54:32
		11548	15.7	1.8573	-0.0301	0.0	0.4294	91.5620	0.9384	200.1	2016-03-12 02:56:37
		11573	15.8	1.8545	-0.0301	0.0	0.4305	91.7849	0.9404	200.5	2016-03-12 02:58:42
		11598	15.8	1.8545	-0.0301	0.0	0.4315	92.0077	0.9423	200.9	2016-03-12 03:00:47
		11623	15.8	1.8520	-0.0301	0.0	0.4326	92.2306	0.9442	201.3	2016-03-12 03:02:52
		11648	15.9	1.8514	-0.0301	0.0	0.4336	92.4534	0.9462	201.7	2016-03-12 03:04:57
		11673	15.9	1.8489	-0.0301	0.0	0.4347	92.6762	0.9481	202.2	2016-03-12 03:07:02
		11698	15.9	1.8483	-0.0301	0.0	0.4357	92.8991	0.9500	202.6	2016-03-12 03:09:07
		11723	16.0	1.8464	-0.0301	0.0	0.4367	93.1219	0.9520	203.0	2016-03-12 03:11:12
		11748	16.0	1.8461	-0.0301	0.0	0.4378	93.3447	0.9539	203.4	2016-03-12 03:13:17
		11773	16.0	1.8436	-0.0301	0.0	0.4388	93.5676	0.9558	203.8	2016-03-12 03:15:22
		11798	16.1	1.8433	-0.0301	0.0	0.4399	93.7904	0.9577	204.2	2016-03-12 03:17:27
		11823	16.1	1.8408	-0.0301	0.0	0.4409	94.0132	0.9597	204.6	2016-03-12 03:19:32
		11848	16.1	1.8412	-0.0301	0.0	0.4420	94.2361	0.9616	205.0	2016-03-12 03:21:37
		11873	16.2	1.8387	-0.0301	0.0	0.4430	94.4589	0.9635	205.4	2016-03-12 03:23:42
		11898	16.2	1.8384	-0.0301	0.0	0.4441	94.6817	0.9654	205.9	2016-03-12 03:25:47
		11923	16.2	1.8362	-0.0301	0.0	0.4451	94.9045	0.9674	206.3	2016-03-12 03:27:52
		11948	16.3	1.8359	-0.0301	0.0	0.4461	95.1274	0.9693	206.7	2016-03-12 03:29:57
		11973	16.3	1.8337	-0.0301	0.0	0.4472	95.3502	0.9712	207.1	2016-03-12 03:32:02
		11998	16.4	1.8328	-0.0301	0.0	0.4482	95.5730	0.9731	207.5	2016-03-12 03:34:07
		12023	16.4	1.8312	-0.0301	0.0	0.4493	95.7959	0.9750	207.9	2016-03-12 03:36:12
		12048	16.4	1.8315	-0.0301	0.0	0.4503	96.0187	0.9770	208.3	2016-03-12 03:38:17
		12073	16.5	1.8288	-0.0301	0.0	0.4514	96.2415	0.9789	208.7	2016-03-12 03:40:22
		12098	16.5	1.8281	-0.0301	0.0	0.4524	96.4644	0.9808	209.1	2016-03-12 03:42:27
		12123	16.5	1.8263	-0.0301	0.0	0.4535	96.6872	0.9827	209.5	2016-03-12 03:44:32
		12148	16.6	1.8260	-0.0301	0.0	0.4545	96.9101	0.9846	209.9	2016-03-12 03:46:37
		12173	16.6	1.8241	-0.0301	0.0	0.4556	97.1329	0.9865	210.3	2016-03-12 03:48:42
		12198	16.6	1.8238	-0.0301	0.0	0.4566	97.3557	0.9884	210.7	2016-03-12 03:50:47
		12223	16.7	1.8216	-0.0301	0.0	0.4576	97.5786	0.9903	211.2	2016-03-12 03:52:52
		12248	16.7	1.8226	-0.0301	0.0	0.4587	97.8014	0.9922	211.6	2016-03-12 03:54:57
		12273	16.7	1.8201	-0.0301	0.0	0.4597	98.0243	0.9941	212.0	2016-03-12 03:57:02
		12298	16.8	1.8201	-0.0301	0.0	0.4608	98.2471	0.9960	212.4	2016-03-12 03:59:07
		12323	16.8	1.8182	-0.0301	0.0	0.4618	98.4700	0.9979	212.8	2016-03-12 04:01:12
		12348	16.8	1.8176	-0.0301	0.0	0.4629	98.6928	0.9998	213.2	2016-03-12 04:03:17
		12373	16.9	1.8154	-0.0301	0.0	0.4639	98.9156	1.0017	213.6	2016-03-12 04:05:22
		12398	16.9	1.8151	-0.0301	0.0	0.4650	99.1385	1.0036	214.0	2016-03-12 04:07:27
		12423	16.9	1.8129	-0.0301	0.0	0.4660	99.3613	1.0055	214.4	2016-03-12 04:09:32
		12448	17.0	1.8133	-0.0301	0.0	0.4670	99.5842	1.0074	214.8	2016-03-12 04:11:37
		12473	17.0	1.8111	-0.0301	0.0	0.4681	99.8070	1.0093	215.2	2016-03-12 04:13:42
		12498	17.0	1.8108	-0.0301	0.0	0.4691	100.0298	1.0112	215.6	2016-03-12 04:15:47
		12523	17.1	1.8089	-0.0301	0.0	0.4702	100.2527	1.0131	216.0	2016-03-12 04:17:52
		12548	17.1	1.8089	-0.0301	0.0	0.4712	100.4755	1.0150	216.4	2016-03-12 04:19:57
		12573	17.1	1.8067	-0.0301	0.0	0.4723	100.6984	1.0169	216.8	2016-03-12 04:22:02
		12598	17.2	1.8064	-0.0301	0.0	0.4733	100.9212	1.0188	217.2	2016-03-12 04:24:07
		12623	17.2	1.8049	-0.0301	0.0	0.4744	101.1440	1.0207	217.6	2016-03-12 04:26:12
		12648	17.3	1.8052	-0.0301	0.0	0.4754	101.3669	1.0225	218.0	2016-03-12 04:28:17
		12673	17.3	1.8046	-0.0301	0.0	0.4765	101.5897	1.0244	218.4	2016-03-12 04:30:22
		12698	17.3	1.8027	-0.0301	0.0	0.4775	101.8125	1.0263	218.8	2016-03-12 04:32:27
		12723	17.4	1.8024	-0.0301	0.0	0.4785	102.0354	1.0282	219.2	2016-03-12 04:34:32
		12748	17.4	1.7999	-0.0301	0.0	0.4796	102.2511	1.0300	219.6	2016-03-12 04:36:33
		12771	0.0	2.1605	0.0301	0.0	0.0009	0.1961	0.0020	0.4	2016-03-12 04:38:23
		12796	0.1	2.1843	0.0301	0.0	0.0020	0.4189	0.0042	0.9	2016-03-12 04:40:28
		12821	0.1	2.2017	0.0301	0.0	0.0030	0.6418	0.0065	1.4	2016-03-12 04:42:33
		12846	0.1	2.2175	0.0301	0.0	0.0041	0.8646	0.0088	1.9	2016-03-12 04:44:38
		12871	0.2	2.2293	0.0301	0.0	0.0051	1.0875	0.0112	2.4	2016-03-12 04:46:43
		12896	0.2	2.2408	0.0301	0.0	0.0061	1.3103	0.0135	2.9	2016-03-12 04:48:48
		12921	0.2	2.2526	0.0301	0.0	0.0072	1.5332	0.0159	3.4	2016-03-12 04:50:53
		12946	0.3	2.2619	0.0301	0.0	0.0082	1.7560	0.0182	3.9	2016-03-12 04:52:58
		12971	0.3	2.2721	0.0301	0.0	0.0093	1.9789	0.0206	4.4	2016-03-12 04:55:03
		12996	0.3	2.2801	0.0301	0.0	0.0103	2.2017	0.0230	4.9	2016-03-12 04:57:08
		13021	0.4	2.2891	0.0301	0.0	0.0114	2.4245	0.0254	5.4	2016-03-12 04:59:13
		13046	0.4	2.2972	0.0301	0.0	0.0124	2.6474	0.0278	5.9	2016-03-12 05:01:18
		13071	0.4	2.3056	0.0301	0.0	0.0135	2.8702	0.0302	6.4	2016-03-12 05:03:23
		13096	0.5	2.3121	0.0301	0.0	0.0145	3.0931	0.0326	6.9	2016-03-12 05:05:28
		13121	0.5	2.3201	0.0301	0.0	0.0156	3.3159	0.0350	7.5	2016-03-12 05:07:33
		13146	0.6	2.3273	0.0301	0.0	0.0166	3.5388	0.0374	8.0	2016-03-12 05:09:38
		13171	0.6	2.3335	0.0301	0.0	0.0176	3.7616	0.0399	8.5	2016-03-12 05:11:43
		13196	0.6	2.3403	0.0301	0.0	0.0187	3.9845	0.0423	9.0	2016-03-12 05:13:48
		13221	0.7	2.3459	0.0301	0.0	0.0197	4.2073	0.0448	9.5	2016-03-12 05:15:53
		13246	0.7	2.3515	0.0301	0.0	0.0208	4.4301	0.0472	10.1	2016-03-12 05:17:58
		13271	0.7	2.3567	0.0301	0.0	0.0218	4.6530	0.0497	10.6	2016-03-12 05:20:03
		13296	0.8	2.3639	0.0301	0.0	0.0229	4.8758	0.0521	11.1	2016-03-12 05:22:08
		13321	0.8	2.3697	0.0301	0.0	0.0239	5.0987	0.0546	11.6	2016-03-12 05:24:13
		13346	0.8	2.3735	0.0301	0.0	0.0250	5.3215	0.0571	12.2	2016-03-12 05:26:18
		13371	0.9	2.3722	0.0301	0.0	0.0260	5.5444	0.0596	12.7	2016-03-12 05:28:23
		13396	0.9	2.3766	0.0301	0.0	0.0270	5.7672	0.0621	13.2	2016-03-12 05:30:28
		13421	0.9	2.3837	0.0301	0.0	0.0281	5.9900	0.0645	13.8	2016-03-12 05:32:33
		13446	1.0	2.3905	0.0301	0.0	0.0291	6.2129	0.0670	14.3	2016-03-12 05:34:38
		13471	1.0	2.3976	0.0301	0.0	0.0302	6.4357	0.0695	14.8	2016-03-12 05:36:43
		13496	1.0	2.4042	0.0301	0.0	0.0312	6.6586	0.0721	15.4	2016-03-12 05:38:48
		13521	1.1	2.4116	0.0301	0.0	0.0323	6.8814	0.0746	15.9	2016-03-12 05:40:53
		13546	1.1	2.4203	0.0301	0.0	0.0333	7.1043	0.0771	16.4	2016-03-12 05:42:58
		13571	1.1	2.4286	0.0301	0.0	0.0344	7.3271	0.0796	17.0	2016-03-12 05:45:03
		13596	1.2	2.4373	0.0301	0.0	0.0354	7.5500	0.0822	17.5	2016-03-12 05:47:08
		13621	1.2	2.4469	0.0301	0.0	0.0365	7.7728	0.0847	18.1	2016-03-12 05:49:13
		13646	1.2	2.4569	0.0301	0.0	0.0375	7.9956	0.0873	18.6	2016-03-12 05:51:18
		13671	1.3	2.4680	0.0301	0.0	0.0385	8.2185	0.0899	19.2	2016-03-12 05:53:23
		13696	1.3	2.4782	0.0301	0.0	0.0396	8.4413	0.0925	19.7	2016-03-12 05:55:28
		13721	1.4	2.4903	0.0301	0.0	0.0406	8.6642	0.0951	20.3	2016-03-12 05:57:33
		13746	1.4	2.5018	0.0301	0.0	0.0417	8.8870	0.0977	20.8	2016-03-12 05:59:38
		13771	1.4	2.5145	0.0301	0.0	0.0427	9.1099	0.1003	21.4	2016-03-12 06:01:43
		13796	1.5	2.5279	0.0301	0.0	0.0438	9.3327	0.1029	21.9	2016-03-12 06:03:48
		13821	1.5	2.5406	0.0301	0.0	0.0448	9.5556	0.1056	22.5	2016-03-12 06:05:53
		13846	1.5	2.5548	0.0301	0.0	0.0459	9.7784	0.1082	23.1	2016-03-12 06:07:58
		13871	1.6	2.5700	0.0301	0.0	0.0469	10.0012	0.1109	23.6	2016-03-12 06:10:03
		13896	1.6	2.5818	0.0301	0.0	0.0480	10.2241	0.1136	24.2	2016-03-12 06:12:08
		13921	1.6	2.5846	0.0301	0.0	0.0490	10.4469	0.1163	24.8	2016-03-12 06:14:13
		13946	1.7	2.5964	0.0301	0.0	0.0500	10.6698	0.1190	25.4	2016-03-12 06:16:18
		13971	1.7	2.6119	0.0301	0.0	0.0511	10.8926	0.1217	26.0	2016-03-12 06:18:23
		13996	1.7	2.6292	0.0301	0.0	0.0521	11.1155	0.1245	26.5	2016-03-12 06:20:28
		14021	1.8	2.6488	0.0301	0.0	0.0532	11.3383	0.1272	27.1	2016-03-12 06:22:33
		14046	1.8	2.6680	0.0301	0.0	0.0542	11.5612	0.1300	27.7	2016-03-12 06:24:38
		14071	1.8	2.6872	0.0301	0.0	0.0553	11.7840	0.1328	28.3	2016-03-12 06:26:43
		14096	1.9	2.7058	0.0301	0.0	0.0563	12.0068	0.1356	28.9	2016-03-12 06:28:48
		14121	1.9	2.7250	0.0301	0.0	0.0574	12.2297	0.1385	29.5	2016-03-12 06:30:53
		14146	1.9	2.7415	0.0301	0.0	0.0584	12.4525	0.1413	30.1	2016-03-12 06:32:58
		14171	2.0	2.7601	0.0301	0.0	0.0594	12.6754	0.1442	30.7	2016-03-12 06:35:03
		14196	2.0	2.7774	0.0301	0.0	0.0605	12.8982	0.1471	31.4	2016-03-12 06:37:08
		14221	2.0	2.7942	0.0301	0.0	0.0615	13.1211	0.1500	32.0	2016-03-12 06:39:13
		14246	2.1	2.8100	0.0301	0.0	0.0626	13.3439	0.1530	32.6	2016-03-12 06:41:18
		14271	2.1	2.8258	0.0301	0.0	0.0636	13.5667	0.1559	33.2	2016-03-12 06:43:23
		14296	2.1	2.8385	0.0301	0.0	0.0647	13.7896	0.1589	33.9	2016-03-12 06:45:28
		14321	2.2	2.8512	0.0301	0.0	0.0657	14.0124	0.1618	34.5	2016-03-12 06:47:33
		14346	2.2	2.8624	0.0301	0.0	0.0668	14.2353	0.1648	35.1	2016-03-12 06:49:38
		14371	2.3	2.8717	0.0301	0.0	0.0678	14.4581	0.1678	35.8	2016-03-12 06:51:43
		14396	2.3	2.8800	0.0301	0.0	0.0689	14.6810	0.1708	36.4	2016-03-12 06:53:48
		14421	2.3	2.8896	0.0301	0.0	0.0699	14.9038	0.1739	37.1	2016-03-12 06:55:53
		14446	2.4	2.8996	0.0301	0.0	0.0709	15.1267	0.1769	37.7	2016-03-12 06:57:58
		14471	2.4	2.9089	0.0301	0.0	0.0720	15.3495	0.1799	38.4	2016-03-12 07:00:03
		14496	2.4	2.8999	0.0301	0.0	0.0730	15.5723	0.1830	39.0	2016-03-12 07:02:08
		14521	2.5	2.8986	0.0301	0.0	0.0741	15.7952	0.1860	39.7	2016-03-12 07:04:13
		14546	2.5	2.8993	0.0301	0.0	0.0751	16.0180	0.1890	40.3	2016-03-12 07:06:18
		14571	2.5	2.9017	0.0301	0.0	0.0762	16.2409	0.1920	40.9	2016-03-12 07:08:23
		14596	2.6	2.9076	0.0301	0.0	0.0772	16.4637	0.1951	41.6	2016-03-12 07:10:28
		14621	2.6	2.9138	0.0301	0.0	0.0783	16.6866	0.1981	42.2	2016-03-12 07:12:33
		14646	2.6	2.9213	0.0301	0.0	0.0793	16.9094	0.2012	42.9	2016-03-12 07:14:38
		14671	2.7	2.9253	0.0301	0.0	0.0804	17.1323	0.2042	43.5	2016-03-12 07:16:43
		14696	2.7	2.9309	0.0301	0.0	0.0814	17.3551	0.2073	44.2	2016-03-12 07:18:48
		14721	2.7	2.9365	0.0301	0.0	0.0824	17.5779	0.2104	44.9	2016-03-12 07:20:53
		14746	2.8	2.9420	0.0301	0.0	0.0835	17.8008	0.2134	45.5	2016-03-12 07:22:58
		14771	2.8	2.9485	0.0301	0.0	0.0845	18.0236	0.2165	46.2	2016-03-12 07:25:03
		14796	2.8	2.9544	0.0301	0.0	0.0856	18.2465	0.2196	46.8	2016-03-12 07:27:08
		14821	2.9	2.9600	0.0301	0.0	0.0866	18.4693	0.2227	47.5	2016-03-12 07:29:13
		14846	2.9	2.9656	0.0301	0.0	0.0877	18.6922	0.2258	48.1	2016-03-12 07:31:18
		14871	2.9	2.9730	0.0301	0.0	0.0887	18.9150	0.2289	48.8	2016-03-12 07:33:23
		14896	3.0	2.9789	0.0301	0.0	0.0898	19.1379	0.2320	49.5	2016-03-12 07:35:28
		14921	3.0	2.9805	0.0301	0.0	0.0908	19.3607	0.2351	50.1	2016-03-12 07:37:33
		14946	3.1	2.9848	0.0301	0.0	0.0918	19.5835	0.2382	50.8	2016-03-12 07:39:38
		14971	3.1	2.9882	0.0301	0.0	0.0929	19.8064	0.2414	51.5	2016-03-12 07:41:43
		14996	3.1	2.9935	0.0301	0.0	0.0939	20.0292	0.2445	52.1	2016-03-12 07:43:48
		15021	3.2	2.9985	0.0301	0.0	0.0950	20.2521	0.2476	52.8	2016-03-12 07:45:53
		15046	3.2	3.0037	0.0301	0.0	0.0960	20.4749	0.2508	53.5	2016-03-12 07:47:58
		15071	3.2	3.0062	0.0301	0.0	0.0971	20.6978	0.2539	54.1	2016-03-12 07:50:03
		15096	3.3	3.0112	0.0301	0.0	0.0981	20.9206	0.2571	54.8	2016-03-12 07:52:08
		15121	3.3	3.0140	0.0301	0.0	0.0992	21.1434	0.2602	55.5	2016-03-12 07:54:13
		15146	3.3	3.0171	0.0301	0.0	0.1002	21.3663	0.2634	56.2	2016-03-12 07:56:18
		15171	3.4	3.0189	0.0301	0.0	0.1013	21.5891	0.2665	56.8	2016-03-12 07:58:23
		15196	3.4	3.0214	0.0301	0.0	0.1023	21.8120	0.2697	57.5	2016-03-12 08:00:28
		15221	3.4	3.0236	0.0301	0.0	0.1033	22.0348	0.2728	58.2	2016-03-12 08:02:33
		15246	3.5	3.0264	0.0301	0.0	0.1044	22.2577	0.2760	58.8	2016-03-12 08:04:38
		15271	3.5	3.0295	0.0301	0.0	0.1054	22.4805	0.2792	59.5	2016-03-12 08:06:43
		15296	3.5	3.0326	0.0301	0.0	0.1065	22.7034	0.2823	60.2	2016-03-12 08:08:48
		15321	3.6	3.0344	0.0301	0.0	0.1075	22.9262	0.2855	60.9	2016-03-12 08:10:53
		15346	3.6	3.0378	0.0301	0.0	0.1086	23.1490	0.2887	61.6	2016-03-12 08:12:58
		15371	3.6	3.0416	0.0301	0.0	0.1096	23.3719	0.2919	62.2	2016-03-12 08:15:03
		15396	3.7	3.0450	0.0301	0.0	0.1107	23.5947	0.2950	62.9	2016-03-12 08:17:08
		15421	3.7	3.0468	0.0301	0.0	0.1117	23.8176	0.2982	63.6	2016-03-12 08:19:13
		15446	3.7	3.0502	0.0301	0.0	0.1127	24.0404	0.3014	64.3	2016-03-12 08:21:18
		15471	3.8	3.0530	0.0301	0.0	0.1138	24.2633	0.3046	64.9	2016-03-12 08:23:23
		15482	3.8	3.0546	0.0301	0.0	0.1143	24.3613	0.3060	65.2	2016-03-12 08:24:18